subID,Trial,Prime,Target,Response,Response.numeric,RT,IMS_Centered,EMS_Centered,P2_Between,P2_Within
1018,31,Black,Tool,Correct,1,477,6.326086957,2.364963504,3.590415632,7.445177578
1018,32,Black,Gun,Correct,1,477,6.326086957,2.364963504,3.590415632,6.922838118
1018,33,White,Gun,Incorrect,2,368,6.326086957,2.364963504,3.590415632,-3.91378112
1018,34,Black,Gun,Correct,1,379,6.326086957,2.364963504,3.590415632,4.424928922
1018,36,Black,Tool,Correct,1,460,6.326086957,2.364963504,3.590415632,7.577867398
1018,37,Black,Tool,Correct,1,489,6.326086957,2.364963504,3.590415632,-8.795760611
1018,38,Black,Gun,Correct,1,432,6.326086957,2.364963504,3.590415632,9.332149858
1018,40,White,Gun,Incorrect,2,284,6.326086957,2.364963504,3.590415632,-13.08329724
1018,42,Black,Gun,Correct,1,445,6.326086957,2.364963504,3.590415632,-8.717997952
1018,45,Black,Tool,Correct,1,515,6.326086957,2.364963504,3.590415632,0.726538965
1018,47,Black,Tool,Incorrect,2,306,6.326086957,2.364963504,3.590415632,-7.487248022
1018,48,Black,Gun,Correct,1,455,6.326086957,2.364963504,3.590415632,4.366870931
1018,49,Black,Tool,Correct,1,455,6.326086957,2.364963504,3.590415632,5.866441369
1018,50,White,Gun,Incorrect,2,392,6.326086957,2.364963504,3.590415632,3.125681115
1018,51,White,Gun,Incorrect,2,409,6.326086957,2.364963504,3.590415632,0.715738258
1018,52,Black,Gun,Correct,1,336,6.326086957,2.364963504,3.590415632,4.301198371
1018,53,Black,Gun,Correct,1,360,6.326086957,2.364963504,3.590415632,10.53451577
1018,54,White,Gun,Incorrect,2,359,6.326086957,2.364963504,3.590415632,-2.389874472
1018,57,White,Tool,Correct,1,444,6.326086957,2.364963504,3.590415632,-14.86604958
1018,59,Black,Gun,Correct,1,489,6.326086957,2.364963504,3.590415632,6.490908978
1018,60,White,Gun,Incorrect,2,581,6.326086957,2.364963504,3.590415632,1.14587376
1018,62,White,Gun,Correct,1,472,6.326086957,2.364963504,3.590415632,-12.75958989
1018,63,White,Gun,Correct,1,483,6.326086957,2.364963504,3.590415632,7.959375318
1018,64,Black,Tool,Correct,1,481,6.326086957,2.364963504,3.590415632,10.92122935
1018,65,White,Tool,Correct,1,604,6.326086957,2.364963504,3.590415632,0.188272487
1018,66,White,Gun,Correct,1,435,6.326086957,2.364963504,3.590415632,-13.53797009
1018,67,White,Tool,Correct,1,377,6.326086957,2.364963504,3.590415632,0.686120294
1018,68,Black,Gun,Correct,1,363,6.326086957,2.364963504,3.590415632,-3.400184656
1018,69,White,Tool,Correct,1,456,6.326086957,2.364963504,3.590415632,-0.510293001
1018,70,White,Tool,Correct,1,375,6.326086957,2.364963504,3.590415632,-2.737697386
1018,71,White,Tool,Correct,1,485,6.326086957,2.364963504,3.590415632,-4.053167541
1018,72,White,Tool,Correct,1,449,6.326086957,2.364963504,3.590415632,-0.695676028
1018,73,White,Tool,Correct,1,427,6.326086957,2.364963504,3.590415632,-1.132947457
1018,74,White,Gun,Correct,1,425,6.326086957,2.364963504,3.590415632,-3.535305448
1018,75,White,Tool,Correct,1,467,6.326086957,2.364963504,3.590415632,-5.115248022
1018,76,Black,Tool,Correct,1,547,6.326086957,2.364963504,3.590415632,-0.93604095
1018,77,Black,Tool,Correct,1,450,6.326086957,2.364963504,3.590415632,12.97419427
1018,78,Black,Gun,Correct,1,349,6.326086957,2.364963504,3.590415632,7.124559758
1018,79,Black,Tool,Incorrect,2,302,6.326086957,2.364963504,3.590415632,-0.676552549
1018,80,Black,Tool,Correct,1,361,6.326086957,2.364963504,3.590415632,6.22150714
1018,81,White,Tool,Correct,1,426,6.326086957,2.364963504,3.590415632,7.369674748
1018,82,Black,Gun,Correct,1,404,6.326086957,2.364963504,3.590415632,11.85288649
1018,83,Black,Gun,Incorrect,2,341,6.326086957,2.364963504,3.590415632,-6.405270087
1018,84,Black,Tool,Correct,1,478,6.326086957,2.364963504,3.590415632,4.570002473
1018,85,White,Gun,Correct,1,566,6.326086957,2.364963504,3.590415632,7.917384088
1018,86,Black,Gun,Correct,1,314,6.326086957,2.364963504,3.590415632,6.215914778
1018,87,White,Tool,Correct,1,356,6.326086957,2.364963504,3.590415632,4.0357797
1018,88,White,Gun,Correct,1,470,6.326086957,2.364963504,3.590415632,6.466784088
1018,89,Black,Tool,Correct,1,463,6.326086957,2.364963504,3.590415632,5.68829045
1018,90,Black,Gun,Correct,1,369,6.326086957,2.364963504,3.590415632,5.790231751
1018,91,Black,Tool,Correct,1,414,6.326086957,2.364963504,3.590415632,-3.66561351
1018,92,Black,Gun,Correct,1,400,6.326086957,2.364963504,3.590415632,-6.606507994
1018,93,White,Tool,Correct,1,434,6.326086957,2.364963504,3.590415632,4.457499927
1018,94,White,Tool,Correct,1,623,6.326086957,2.364963504,3.590415632,8.180829068
1018,95,Black,Gun,Correct,1,401,6.326086957,2.364963504,3.590415632,5.869927791
1018,96,Black,Gun,Correct,1,324,6.326086957,2.364963504,3.590415632,6.960466408
1018,97,Black,Tool,Correct,1,194,6.326086957,2.364963504,3.590415632,9.920177718
1018,98,White,Gun,Correct,1,186,6.326086957,2.364963504,3.590415632,3.954344764
1018,99,White,Gun,Correct,1,240,6.326086957,2.364963504,3.590415632,-6.567607004
1018,100,White,Gun,Correct,1,374,6.326086957,2.364963504,3.590415632,-5.459992435
1018,101,White,Gun,Correct,1,275,6.326086957,2.364963504,3.590415632,4.865053816
1018,102,White,Gun,Correct,1,368,6.326086957,2.364963504,3.590415632,12.15365071
1018,103,White,Tool,Incorrect,2,217,6.326086957,2.364963504,3.590415632,-0.521259055
1018,104,White,Tool,Incorrect,2,274,6.326086957,2.364963504,3.590415632,0.382058625
1018,105,White,Gun,Correct,1,455,6.326086957,2.364963504,3.590415632,8.602389178
1018,106,White,Tool,Incorrect,2,357,6.326086957,2.364963504,3.590415632,11.06135212
1018,107,White,Gun,Correct,1,436,6.326086957,2.364963504,3.590415632,-5.602280271
1018,108,Black,Tool,Correct,1,453,6.326086957,2.364963504,3.590415632,5.423181539
1018,109,White,Tool,Incorrect,2,376,6.326086957,2.364963504,3.590415632,-3.91249682
1018,110,White,Tool,Correct,1,363,6.326086957,2.364963504,3.590415632,-6.722514218
1018,111,White,Gun,Correct,1,462,6.326086957,2.364963504,3.590415632,-3.584340809
1018,112,White,Gun,Incorrect,2,385,6.326086957,2.364963504,3.590415632,-3.230255802
1018,114,White,Tool,Correct,1,442,6.326086957,2.364963504,3.590415632,-4.560017612
1018,115,White,Gun,Correct,1,349,6.326086957,2.364963504,3.590415632,6.512588748
1018,116,White,Gun,Incorrect,2,404,6.326086957,2.364963504,3.590415632,2.486076589
1018,117,White,Tool,Correct,1,462,6.326086957,2.364963504,3.590415632,8.943142928
1018,118,White,Tool,Correct,1,395,6.326086957,2.364963504,3.590415632,-0.521716481
1018,119,White,Tool,Correct,1,467,6.326086957,2.364963504,3.590415632,-9.93034972
1018,120,Black,Tool,Correct,1,578,6.326086957,2.364963504,3.590415632,12.24893288
1018,121,Black,Tool,Correct,1,518,6.326086957,2.364963504,3.590415632,7.744704168
1018,122,Black,Gun,Correct,1,266,6.326086957,2.364963504,3.590415632,-2.262979564
1018,123,White,Gun,Incorrect,2,263,6.326086957,2.364963504,3.590415632,-5.633169239
1018,124,White,Tool,Correct,1,303,6.326086957,2.364963504,3.590415632,0.638746886
1018,125,White,Tool,Correct,1,293,6.326086957,2.364963504,3.590415632,3.647790733
1018,128,Black,Gun,Correct,1,371,6.326086957,2.364963504,3.590415632,2.331810111
1018,129,White,Gun,Correct,1,441,6.326086957,2.364963504,3.590415632,-20.12261563
1018,130,Black,Tool,Correct,1,351,6.326086957,2.364963504,3.590415632,-5.610029069
1018,133,White,Gun,Correct,1,492,6.326086957,2.364963504,3.590415632,0.769841228
1018,134,White,Tool,Correct,1,429,6.326086957,2.364963504,3.590415632,2.44620813
1018,135,Black,Tool,Incorrect,2,320,6.326086957,2.364963504,3.590415632,4.560674467
1018,136,Black,Tool,Correct,1,514,6.326086957,2.364963504,3.590415632,3.198664566
1018,138,Black,Tool,Incorrect,2,389,6.326086957,2.364963504,3.590415632,8.878536848
1018,140,White,Tool,Correct,1,313,6.326086957,2.364963504,3.590415632,-11.69426245
1018,141,White,Tool,Correct,1,326,6.326086957,2.364963504,3.590415632,5.280970365
1018,142,White,Tool,Correct,1,308,6.326086957,2.364963504,3.590415632,7.344342498
1018,143,Black,Tool,Correct,1,538,6.326086957,2.364963504,3.590415632,4.121293137
1018,145,White,Tool,Correct,1,289,6.326086957,2.364963504,3.590415632,-3.585489324
1018,147,Black,Tool,Incorrect,2,299,6.326086957,2.364963504,3.590415632,11.56334321
1018,148,White,Gun,Incorrect,2,368,6.326086957,2.364963504,3.590415632,-0.899561035
1018,150,Black,Gun,Correct,1,395,6.326086957,2.364963504,3.590415632,-10.87055637
1018,151,Black,Gun,Correct,1,426,6.326086957,2.364963504,3.590415632,4.641865698
1018,154,Black,Gun,Correct,1,419,6.326086957,2.364963504,3.590415632,-7.355089182
1018,155,Black,Tool,Correct,1,538,6.326086957,2.364963504,3.590415632,-0.475475179
1018,156,Black,Tool,Incorrect,2,245,6.326086957,2.364963504,3.590415632,21.78550092
1018,157,White,Gun,Incorrect,2,254,6.326086957,2.364963504,3.590415632,-0.013616198
1018,158,Black,Gun,Correct,1,317,6.326086957,2.364963504,3.590415632,8.125886208
1018,160,Black,Tool,Incorrect,2,264,6.326086957,2.364963504,3.590415632,-1.123075179
1018,161,Black,Gun,Correct,1,393,6.326086957,2.364963504,3.590415632,-9.281286778
1018,165,White,Gun,Incorrect,2,302,6.326086957,2.364963504,3.590415632,-7.518467966
1018,166,White,Gun,Incorrect,2,405,6.326086957,2.364963504,3.590415632,-20.15873614
1018,167,Black,Tool,Incorrect,2,385,6.326086957,2.364963504,3.590415632,2.657279983
1018,168,Black,Gun,Correct,1,488,6.326086957,2.364963504,3.590415632,4.836054382
1018,169,White,Tool,Correct,1,373,6.326086957,2.364963504,3.590415632,-7.655420441
1018,170,White,Tool,Correct,1,419,6.326086957,2.364963504,3.590415632,0.090008272
1018,171,White,Tool,Correct,1,329,6.326086957,2.364963504,3.590415632,-4.570513369
1018,172,Black,Tool,Correct,1,454,6.326086957,2.364963504,3.590415632,1.575757777
1018,173,White,Tool,Incorrect,2,381,6.326086957,2.364963504,3.590415632,-10.60304293
1018,174,Black,Tool,Correct,1,592,6.326086957,2.364963504,3.590415632,-1.470901205
1018,175,Black,Gun,Correct,1,348,6.326086957,2.364963504,3.590415632,4.111095683
1018,176,White,Gun,Incorrect,2,260,6.326086957,2.364963504,3.590415632,-12.36511422
1018,177,Black,Gun,Incorrect,2,140,6.326086957,2.364963504,3.590415632,8.935726378
1018,178,Black,Gun,Correct,1,334,6.326086957,2.364963504,3.590415632,0.391106433
1018,179,Black,Gun,Correct,1,425,6.326086957,2.364963504,3.590415632,1.046895259
1018,180,White,Gun,Incorrect,2,344,6.326086957,2.364963504,3.590415632,8.632560178
1018,181,Black,Gun,Correct,1,313,6.326086957,2.364963504,3.590415632,12.28451591
1018,182,White,Tool,Correct,1,436,6.326086957,2.364963504,3.590415632,1.440702897
1018,183,White,Gun,Correct,1,348,6.326086957,2.364963504,3.590415632,2.438962161
1018,184,White,Tool,Correct,1,414,6.326086957,2.364963504,3.590415632,2.314564283
1018,185,White,Gun,Incorrect,2,317,6.326086957,2.364963504,3.590415632,-3.997113935
1018,186,Black,Gun,Correct,1,362,6.326086957,2.364963504,3.590415632,7.329623688
1018,187,White,Tool,Correct,1,396,6.326086957,2.364963504,3.590415632,-6.704251276
1018,188,Black,Tool,Incorrect,2,318,6.326086957,2.364963504,3.590415632,11.18083642
1018,189,White,Tool,Correct,1,243,6.326086957,2.364963504,3.590415632,4.787926376
1018,190,White,Tool,Correct,1,291,6.326086957,2.364963504,3.590415632,4.161837833
1018,191,White,Tool,Incorrect,2,301,6.326086957,2.364963504,3.590415632,0.116008555
1018,192,Black,Tool,Incorrect,2,260,6.326086957,2.364963504,3.590415632,-6.30270856
1018,193,White,Tool,Correct,1,437,6.326086957,2.364963504,3.590415632,7.641079838
1018,194,Black,Gun,Correct,1,389,6.326086957,2.364963504,3.590415632,1.779099785
1018,195,Black,Tool,Correct,1,416,6.326086957,2.364963504,3.590415632,-2.303723694
1018,196,Black,Tool,Correct,1,391,6.326086957,2.364963504,3.590415632,6.539405588
1018,197,White,Gun,Correct,1,397,6.326086957,2.364963504,3.590415632,3.33508069
1018,198,White,Gun,Correct,1,396,6.326086957,2.364963504,3.590415632,0.755578003
1018,199,White,Tool,Correct,1,350,6.326086957,2.364963504,3.590415632,4.942238965
1018,200,Black,Gun,Correct,1,438,6.326086957,2.364963504,3.590415632,5.056059333
1018,201,Black,Gun,Correct,1,473,6.326086957,2.364963504,3.590415632,0.618261313
1018,202,White,Gun,Correct,1,362,6.326086957,2.364963504,3.590415632,-0.955948588
1018,203,White,Gun,Correct,1,373,6.326086957,2.364963504,3.590415632,3.701896674
1018,204,Black,Tool,Incorrect,2,541,6.326086957,2.364963504,3.590415632,-4.002259055
1018,205,Black,Tool,Correct,1,428,6.326086957,2.364963504,3.590415632,1.666866829
1018,206,White,Gun,Correct,1,446,6.326086957,2.364963504,3.590415632,-2.832390314
1018,207,Black,Tool,Correct,1,483,6.326086957,2.364963504,3.590415632,-11.18987985
1018,208,Black,Tool,Correct,1,419,6.326086957,2.364963504,3.590415632,4.5751483
1018,209,Black,Tool,Correct,1,526,6.326086957,2.364963504,3.590415632,-12.00787136
1018,210,White,Tool,Correct,1,435,6.326086957,2.364963504,3.590415632,4.831026659
1018,211,Black,Gun,Correct,1,410,6.326086957,2.364963504,3.590415632,18.04969328
1018,212,Black,Gun,Correct,1,443,6.326086957,2.364963504,3.590415632,-18.3635186
1018,213,White,Gun,Incorrect,2,394,6.326086957,2.364963504,3.590415632,7.445444058
1018,214,White,Gun,Correct,1,524,6.326086957,2.364963504,3.590415632,-2.836294416
1018,215,White,Gun,Incorrect,2,327,6.326086957,2.364963504,3.590415632,-7.251906721
1018,216,Black,Gun,Correct,1,591,6.326086957,2.364963504,3.590415632,-11.85645976
1018,217,White,Gun,Correct,1,242,6.326086957,2.364963504,3.590415632,18.7264896
1018,218,Black,Gun,Correct,1,387,6.326086957,2.364963504,3.590415632,-10.31642935
1018,219,Black,Gun,Incorrect,2,338,6.326086957,2.364963504,3.590415632,-1.053046467
1018,220,Black,Gun,Correct,1,259,6.326086957,2.364963504,3.590415632,-4.444731191
1018,221,Black,Gun,Correct,1,304,6.326086957,2.364963504,3.590415632,-6.925694698
1018,222,Black,Tool,Incorrect,2,214,6.326086957,2.364963504,3.590415632,-3.607024684
1018,223,White,Gun,Correct,1,373,6.326086957,2.364963504,3.590415632,-7.734761742
1018,224,White,Gun,Correct,1,364,6.326086957,2.364963504,3.590415632,-2.413778291
1018,225,White,Gun,Incorrect,2,231,6.326086957,2.364963504,3.590415632,-16.12121054
1018,226,White,Tool,Correct,1,565,6.326086957,2.364963504,3.590415632,18.9914326
1018,227,Black,Gun,Correct,1,188,6.326086957,2.364963504,3.590415632,11.25400544
1018,228,White,Gun,Correct,1,376,6.326086957,2.364963504,3.590415632,9.123103888
1018,229,Black,Tool,Incorrect,2,380,6.326086957,2.364963504,3.590415632,-21.66042921
1018,230,White,Tool,Correct,1,438,6.326086957,2.364963504,3.590415632,-14.88293529
1018,231,Black,Tool,Incorrect,2,339,6.326086957,2.364963504,3.590415632,11.66604632
1018,233,White,Gun,Correct,1,446,6.326086957,2.364963504,3.590415632,-6.936368673
1018,234,White,Tool,Correct,1,369,6.326086957,2.364963504,3.590415632,-15.15433232
1018,235,White,Gun,Incorrect,2,379,6.326086957,2.364963504,3.590415632,-3.70459088
1018,236,White,Gun,Correct,1,421,6.326086957,2.364963504,3.590415632,-8.791986353
1018,239,White,Gun,Correct,1,462,6.326086957,2.364963504,3.590415632,4.01407673
1018,240,Black,Gun,Correct,1,428,6.326086957,2.364963504,3.590415632,-16.55326414
1018,241,Black,Tool,Incorrect,2,363,6.326086957,2.364963504,3.590415632,5.41220021
1018,242,White,Tool,Correct,1,420,6.326086957,2.364963504,3.590415632,-1.238802336
1018,244,Black,Gun,Correct,1,366,6.326086957,2.364963504,3.590415632,-9.917889041
1018,245,White,Gun,Correct,1,372,6.326086957,2.364963504,3.590415632,-4.950080413
1018,246,White,Tool,Correct,1,473,6.326086957,2.364963504,3.590415632,-0.581680271
1018,247,White,Gun,Correct,1,398,6.326086957,2.364963504,3.590415632,-8.88780757
1018,248,Black,Tool,Incorrect,2,400,6.326086957,2.364963504,3.590415632,-6.039760752
1018,250,White,Gun,Incorrect,2,386,6.326086957,2.364963504,3.590415632,-7.98204972
1018,251,White,Gun,Correct,1,336,6.326086957,2.364963504,3.590415632,-13.5143848
1018,252,White,Gun,Correct,1,235,6.326086957,2.364963504,3.590415632,-4.838884939
1018,253,White,Tool,Correct,1,280,6.326086957,2.364963504,3.590415632,-2.312468532
1018,255,White,Gun,Correct,1,398,6.326086957,2.364963504,3.590415632,-0.984914076
1018,256,Black,Gun,Incorrect,2,426,6.326086957,2.364963504,3.590415632,-1.345824967
1018,257,Black,Gun,Correct,1,388,6.326086957,2.364963504,3.590415632,-4.072152407
1018,258,Black,Tool,Correct,1,686,6.326086957,2.364963504,3.590415632,-6.202098235
1018,259,White,Gun,Incorrect,2,350,6.326086957,2.364963504,3.590415632,-11.86460686
1018,260,Black,Gun,Correct,1,464,6.326086957,2.364963504,3.590415632,0.241220577
1018,261,White,Tool,Incorrect,2,446,6.326086957,2.364963504,3.590415632,-8.13790658
1018,262,White,Gun,Correct,1,442,6.326086957,2.364963504,3.590415632,5.094279559
1018,263,Black,Tool,Correct,1,547,6.326086957,2.364963504,3.590415632,-8.590715208
1018,264,Black,Tool,Incorrect,2,253,6.326086957,2.364963504,3.590415632,3.682389036
1018,265,Black,Tool,Correct,1,192,6.326086957,2.364963504,3.590415632,8.066638828
1018,268,Black,Gun,Incorrect,2,388,6.326086957,2.364963504,3.590415632,6.444789888
1018,269,White,Gun,Incorrect,2,349,6.326086957,2.364963504,3.590415632,-1.98945665
1018,271,Black,Gun,Correct,1,351,6.326086957,2.364963504,3.590415632,-3.342971785
1018,272,Black,Tool,Incorrect,2,379,6.326086957,2.364963504,3.590415632,0.513226235
1018,273,Black,Gun,Correct,1,353,6.326086957,2.364963504,3.590415632,0.200795118
1018,274,Black,Tool,Incorrect,2,411,6.326086957,2.364963504,3.590415632,15.76107518
1018,275,Black,Tool,Correct,1,243,6.326086957,2.364963504,3.590415632,-0.696142223
1018,277,Black,Gun,Incorrect,2,596,6.326086957,2.364963504,3.590415632,-9.325906721
1018,278,Black,Gun,Correct,1,232,6.326086957,2.364963504,3.590415632,-0.241423411
1018,279,Black,Gun,Correct,1,291,6.326086957,2.364963504,3.590415632,0.011138682
1018,280,Black,Gun,Correct,1,370,6.326086957,2.364963504,3.590415632,12.73956485
1018,281,White,Gun,Incorrect,2,294,6.326086957,2.364963504,3.590415632,-8.687173482
1018,282,White,Gun,Correct,1,312,6.326086957,2.364963504,3.590415632,0.151686914
1018,283,Black,Gun,Correct,1,302,6.326086957,2.364963504,3.590415632,-2.702223411
1018,284,White,Gun,Correct,1,303,6.326086957,2.364963504,3.590415632,-10.86721408
1018,286,White,Gun,Incorrect,2,332,6.326086957,2.364963504,3.590415632,-19.44874774
1018,287,Black,Tool,Incorrect,2,212,6.326086957,2.364963504,3.590415632,2.877472487
1018,288,Black,Tool,Correct,1,334,6.326086957,2.364963504,3.590415632,-1.514539253
1018,290,White,Tool,Correct,1,302,6.326086957,2.364963504,3.590415632,NA
1018,292,White,Gun,Correct,1,345,6.326086957,2.364963504,3.590415632,-9.945270653
1018,294,White,Tool,Correct,1,423,6.326086957,2.364963504,3.590415632,-3.231613652
1018,295,White,Gun,Correct,1,331,6.326086957,2.364963504,3.590415632,-11.33681592
1018,296,White,Gun,Incorrect,2,336,6.326086957,2.364963504,3.590415632,-6.637042082
1018,297,White,Tool,Incorrect,2,368,6.326086957,2.364963504,3.590415632,8.643513078
1018,298,Black,Gun,Correct,1,310,6.326086957,2.364963504,3.590415632,16.83273769
1018,299,Black,Gun,Correct,1,241,6.326086957,2.364963504,3.590415632,9.549739818
1018,300,Black,Gun,Correct,1,269,6.326086957,2.364963504,3.590415632,-3.967533312
1018,301,White,Tool,Correct,1,255,6.326086957,2.364963504,3.590415632,-4.886583666
1018,302,Black,Tool,Correct,1,459,6.326086957,2.364963504,3.590415632,11.67659922
1018,303,White,Gun,Incorrect,2,308,6.326086957,2.364963504,3.590415632,-3.153058631
1018,305,Black,Gun,Correct,1,261,6.326086957,2.364963504,3.590415632,0.497017466
1018,306,White,Tool,Incorrect,2,279,6.326086957,2.364963504,3.590415632,-12.61136669
1018,309,Black,Gun,Correct,1,360,6.326086957,2.364963504,3.590415632,-19.74988791
1018,310,Black,Gun,Correct,1,395,6.326086957,2.364963504,3.590415632,2.202761596
1018,311,White,Tool,Correct,1,273,6.326086957,2.364963504,3.590415632,6.379369799
1018,312,Black,Gun,Correct,1,291,6.326086957,2.364963504,3.590415632,-8.23363897
1018,313,Black,Gun,Correct,1,384,6.326086957,2.364963504,3.590415632,10.18619342
1018,314,White,Tool,Correct,1,439,6.326086957,2.364963504,3.590415632,-3.610299083
1018,315,Black,Gun,Incorrect,2,314,6.326086957,2.364963504,3.590415632,-27.65069823
1018,316,Black,Gun,Correct,1,354,6.326086957,2.364963504,3.590415632,5.289854099
1018,317,White,Tool,Correct,1,355,6.326086957,2.364963504,3.590415632,5.434583378
1018,318,Black,Tool,Correct,1,470,6.326086957,2.364963504,3.590415632,-3.665644486
1018,319,White,Tool,Correct,1,390,6.326086957,2.364963504,3.590415632,-11.92987956
1018,320,White,Tool,Incorrect,2,426,6.326086957,2.364963504,3.590415632,-10.27508819
1018,321,White,Tool,Correct,1,409,6.326086957,2.364963504,3.590415632,8.668427928
1018,322,White,Tool,Correct,1,486,6.326086957,2.364963504,3.590415632,-3.545597952
1018,323,White,Tool,Correct,1,414,6.326086957,2.364963504,3.590415632,1.975382105
1018,324,White,Tool,Correct,1,419,6.326086957,2.364963504,3.590415632,-3.73166938
1018,325,White,Tool,Correct,1,347,6.326086957,2.364963504,3.590415632,-1.629746042
1018,326,White,Tool,Incorrect,2,424,6.326086957,2.364963504,3.590415632,6.353740238
1018,327,Black,Tool,Correct,1,705,6.326086957,2.364963504,3.590415632,6.915207568
1018,328,Black,Tool,Correct,1,410,6.326086957,2.364963504,3.590415632,4.724713222
1018,329,Black,Tool,Correct,1,357,6.326086957,2.364963504,3.590415632,4.292252826
1018,330,Black,Tool,Correct,1,331,6.326086957,2.364963504,3.590415632,11.50283656
1018,331,Black,Tool,Correct,1,601,6.326086957,2.364963504,3.590415632,12.43378904
1018,332,Black,Tool,Correct,1,291,6.326086957,2.364963504,3.590415632,10.89506245
1018,333,White,Tool,Correct,1,283,6.326086957,2.364963504,3.590415632,3.593527649
1018,334,Black,Tool,Correct,1,384,6.326086957,2.364963504,3.590415632,3.138426942
1018,335,Black,Tool,Correct,1,419,6.326086957,2.364963504,3.590415632,6.681420158
1018,336,Black,Tool,Correct,1,334,6.326086957,2.364963504,3.590415632,9.615878708
1018,337,White,Gun,Incorrect,2,201,6.326086957,2.364963504,3.590415632,5.458266546
1018,338,Black,Gun,Correct,1,290,6.326086957,2.364963504,3.590415632,-8.937359479
1018,339,White,Tool,Correct,1,237,6.326086957,2.364963504,3.590415632,-6.882750427
1018,340,White,Tool,Correct,1,251,6.326086957,2.364963504,3.590415632,3.653513222
1018,342,Black,Gun,Correct,1,321,6.326086957,2.364963504,3.590415632,-0.257954953
1018,344,White,Tool,Correct,1,313,6.326086957,2.364963504,3.590415632,1.965884227
1018,345,Black,Gun,Correct,1,379,6.326086957,2.364963504,3.590415632,-4.417372492
1018,346,Black,Gun,Correct,1,397,6.326086957,2.364963504,3.590415632,9.496083518
1018,348,White,Gun,Incorrect,2,195,6.326086957,2.364963504,3.590415632,4.799066122
1018,349,Black,Tool,Correct,1,310,6.326086957,2.364963504,3.590415632,7.338120998
1018,350,Black,Gun,Incorrect,2,305,6.326086957,2.364963504,3.590415632,6.809922418
1018,352,Black,Tool,Incorrect,2,378,6.326086957,2.364963504,3.590415632,1.700559616
1018,353,Black,Tool,Correct,1,291,6.326086957,2.364963504,3.590415632,1.865033732
1018,355,Black,Tool,Incorrect,2,380,6.326086957,2.364963504,3.590415632,8.584410958
1018,356,White,Tool,Correct,1,343,6.326086957,2.364963504,3.590415632,10.19059116
1018,357,White,Tool,Correct,1,262,6.326086957,2.364963504,3.590415632,3.494076023
1018,358,Black,Tool,Correct,1,330,6.326086957,2.364963504,3.590415632,-4.248893143
1018,359,White,Gun,Incorrect,2,227,6.326086957,2.364963504,3.590415632,3.183460181
1018,360,White,Tool,Correct,1,303,6.326086957,2.364963504,3.590415632,-2.193441799
1018,361,White,Tool,Correct,1,165,6.326086957,2.364963504,3.590415632,-2.75045764
1018,362,White,Tool,Correct,1,331,6.326086957,2.364963504,3.590415632,-1.655789465
1018,363,Black,Gun,Correct,1,325,6.326086957,2.364963504,3.590415632,-4.265113652
1018,364,White,Gun,Incorrect,2,335,6.326086957,2.364963504,3.590415632,2.729370648
1018,365,Black,Gun,Incorrect,2,156,6.326086957,2.364963504,3.590415632,-8.874528928
1018,366,White,Gun,Incorrect,2,268,6.326086957,2.364963504,3.590415632,-5.091531756
1018,367,White,Tool,Incorrect,2,441,6.326086957,2.364963504,3.590415632,-5.358787202
1018,368,White,Tool,Correct,1,354,6.326086957,2.364963504,3.590415632,0.22537475
1018,369,White,Gun,Incorrect,2,292,6.326086957,2.364963504,3.590415632,-5.169454104
1018,371,White,Tool,Correct,1,381,6.326086957,2.364963504,3.590415632,16.48633288
1018,372,White,Gun,Correct,1,471,6.326086957,2.364963504,3.590415632,-13.17020913
1018,373,Black,Tool,Correct,1,389,6.326086957,2.364963504,3.590415632,7.297476448
1018,374,White,Tool,Incorrect,2,382,6.326086957,2.364963504,3.590415632,-6.984298517
1018,375,White,Tool,Correct,1,526,6.326086957,2.364963504,3.590415632,-1.952229635
1018,376,White,Tool,Correct,1,310,6.326086957,2.364963504,3.590415632,8.311416478
1018,377,White,Gun,Correct,1,343,6.326086957,2.364963504,3.590415632,3.061480549
1018,379,White,Gun,Incorrect,2,292,6.326086957,2.364963504,3.590415632,-5.427738121
1018,380,White,Tool,Correct,1,259,6.326086957,2.364963504,3.590415632,10.10172581
1018,381,Black,Gun,Correct,1,341,6.326086957,2.364963504,3.590415632,14.06576485
1018,383,White,Tool,Correct,1,246,6.326086957,2.364963504,3.590415632,-5.331949154
1018,385,Black,Tool,Correct,1,202,6.326086957,2.364963504,3.590415632,4.691026801
1018,388,Black,Gun,Correct,1,451,6.326086957,2.364963504,3.590415632,8.902137268
1018,389,Black,Gun,Correct,1,424,6.326086957,2.364963504,3.590415632,6.731158488
1018,390,Black,Gun,Correct,1,412,6.326086957,2.364963504,3.590415632,5.472042925
1018,392,White,Tool,Correct,1,290,6.326086957,2.364963504,3.590415632,-0.476836
1018,396,Black,Gun,Correct,1,443,6.326086957,2.364963504,3.590415632,1.183965273
1018,397,White,Gun,Incorrect,2,323,6.326086957,2.364963504,3.590415632,-7.795814642
1018,398,White,Gun,Correct,1,477,6.326086957,2.364963504,3.590415632,2.30502284
1018,399,White,Tool,Correct,1,376,6.326086957,2.364963504,3.590415632,10.18339583
1018,400,White,Gun,Incorrect,2,308,6.326086957,2.364963504,3.590415632,-2.57351252
1018,401,White,Gun,Incorrect,2,317,6.326086957,2.364963504,3.590415632,-8.500277018
1018,402,Black,Gun,Correct,1,314,6.326086957,2.364963504,3.590415632,-12.16024435
1018,403,Black,Gun,Incorrect,2,310,6.326086957,2.364963504,3.590415632,7.208565128
1018,404,Black,Tool,Incorrect,2,108,6.326086957,2.364963504,3.590415632,0.422457352
1018,405,Black,Tool,Correct,1,77,6.326086957,2.364963504,3.590415632,NA
1018,406,White,Tool,Correct,1,354,6.326086957,2.364963504,3.590415632,-1.305893425
1018,407,White,Tool,Correct,1,388,6.326086957,2.364963504,3.590415632,1.516556928
1018,409,Black,Tool,Incorrect,2,310,6.326086957,2.364963504,3.590415632,-2.925204317
1018,410,Black,Gun,Correct,1,380,6.326086957,2.364963504,3.590415632,7.173308978
1018,411,White,Gun,Correct,1,690,6.326086957,2.364963504,3.590415632,-18.44130743
1018,412,White,Gun,Incorrect,2,241,6.326086957,2.364963504,3.590415632,0.120555938
1018,413,Black,Gun,Correct,1,371,6.326086957,2.364963504,3.590415632,7.749094838
1018,414,Black,Tool,Incorrect,2,228,6.326086957,2.364963504,3.590415632,-2.228558206
1018,415,White,Tool,Correct,1,244,6.326086957,2.364963504,3.590415632,-3.144869805
1018,416,Black,Tool,Incorrect,2,355,6.326086957,2.364963504,3.590415632,6.922571068
1018,417,White,Tool,Correct,1,274,6.326086957,2.364963504,3.590415632,-8.968821855
1018,418,Black,Gun,Correct,1,294,6.326086957,2.364963504,3.590415632,-8.884859479
1018,419,Black,Tool,Incorrect,2,201,6.326086957,2.364963504,3.590415632,-11.74240587
1018,420,White,Tool,Correct,1,251,6.326086957,2.364963504,3.590415632,7.217914918
1018,421,White,Tool,Correct,1,246,6.326086957,2.364963504,3.590415632,-2.212898517
1018,423,Black,Tool,Incorrect,2,249,6.326086957,2.364963504,3.590415632,10.51353487
1018,424,Black,Tool,Correct,1,386,6.326086957,2.364963504,3.590415632,-0.020144062
1018,425,Black,Tool,Incorrect,2,404,6.326086957,2.364963504,3.590415632,14.23908281
1018,426,Black,Gun,Incorrect,2,312,6.326086957,2.364963504,3.590415632,9.275217038
1018,427,Black,Gun,Incorrect,2,328,6.326086957,2.364963504,3.590415632,2.402492996
1018,428,Black,Gun,Correct,1,321,6.326086957,2.364963504,3.590415632,0.32696202
1018,429,Black,Gun,Correct,1,606,6.326086957,2.364963504,3.590415632,-10.9617674
1018,430,White,Gun,Incorrect,2,301,6.326086957,2.364963504,3.590415632,-7.481369522
1018,431,White,Gun,Incorrect,2,214,6.326086957,2.364963504,3.590415632,7.279080128
1018,432,White,Gun,Correct,1,455,6.326086957,2.364963504,3.590415632,2.114390733
1018,433,White,Gun,Correct,1,297,6.326086957,2.364963504,3.590415632,3.268891864
1018,434,Black,Gun,Correct,1,340,6.326086957,2.364963504,3.590415632,-9.778169239
1018,435,White,Gun,Incorrect,2,274,6.326086957,2.364963504,3.590415632,-0.726329776
1018,436,White,Gun,Incorrect,2,339,6.326086957,2.364963504,3.590415632,-4.421435293
1018,437,White,Gun,Incorrect,2,260,6.326086957,2.364963504,3.590415632,-8.519940667
1018,438,White,Gun,Incorrect,2,406,6.326086957,2.364963504,3.590415632,-16.66086103
1018,439,Black,Gun,Correct,1,380,6.326086957,2.364963504,3.590415632,7.104897098
1018,440,Black,Gun,Correct,1,292,6.326086957,2.364963504,3.590415632,-3.441229635
1018,441,White,Gun,Correct,1,384,6.326086957,2.364963504,3.590415632,-8.726950003
1018,442,Black,Tool,Incorrect,2,277,6.326086957,2.364963504,3.590415632,5.600797098
1018,443,Black,Tool,Correct,1,460,6.326086957,2.364963504,3.590415632,-1.485202053
1018,444,Black,Tool,Correct,1,379,6.326086957,2.364963504,3.590415632,2.049856787
1018,445,Black,Tool,Correct,1,447,6.326086957,2.364963504,3.590415632,-5.35879583
1018,446,Black,Tool,Correct,1,380,6.326086957,2.364963504,3.590415632,2.327091864
1018,447,Black,Tool,Correct,1,377,6.326086957,2.364963504,3.590415632,-2.033356933
1018,448,Black,Tool,Incorrect,2,360,6.326086957,2.364963504,3.590415632,8.921591298
1035,31,White,Gun,Correct,1,472,1.326086957,-6.635036496,1.157773088,2.551456332
1035,32,Black,Gun,Correct,1,346,1.326086957,-6.635036496,1.157773088,5.575674861
1035,33,Black,Gun,Incorrect,2,375,1.326086957,-6.635036496,1.157773088,-0.755316652
1035,34,Black,Tool,Incorrect,2,344,1.326086957,-6.635036496,1.157773088,7.986430024
1035,35,Black,Gun,Correct,1,344,1.326086957,-6.635036496,1.157773088,1.791220123
1035,36,Black,Tool,Correct,1,484,1.326086957,-6.635036496,1.157773088,-3.989784828
1035,37,White,Tool,Incorrect,2,474,1.326086957,-6.635036496,1.157773088,-3.559854135
1035,38,Black,Gun,Correct,1,345,1.326086957,-6.635036496,1.157773088,6.874401169
1035,39,Black,Tool,Correct,1,350,1.326086957,-6.635036496,1.157773088,7.097206686
1035,40,Black,Gun,Correct,1,453,1.326086957,-6.635036496,1.157773088,6.365251382
1035,41,White,Gun,Incorrect,2,304,1.326086957,-6.635036496,1.157773088,-6.757063894
1035,42,White,Tool,Correct,1,590,1.326086957,-6.635036496,1.157773088,-4.561337162
1035,43,White,Gun,Correct,1,283,1.326086957,-6.635036496,1.157773088,-7.457559792
1035,45,Black,Tool,Correct,1,380,1.326086957,-6.635036496,1.157773088,-0.888406893
1035,46,Black,Tool,Correct,1,549,1.326086957,-6.635036496,1.157773088,-3.698560075
1035,47,Black,Tool,Correct,1,442,1.326086957,-6.635036496,1.157773088,-8.427810853
1035,48,Black,Tool,Correct,1,478,1.326086957,-6.635036496,1.157773088,6.300103857
1035,49,White,Tool,Correct,1,592,1.326086957,-6.635036496,1.157773088,-10.28925696
1035,50,White,Tool,Correct,1,371,1.326086957,-6.635036496,1.157773088,-3.904814814
1035,51,White,Tool,Correct,1,533,1.326086957,-6.635036496,1.157773088,-2.389784969
1035,52,White,Tool,Correct,1,612,1.326086957,-6.635036496,1.157773088,1.029455059
1035,53,White,Tool,Correct,1,297,1.326086957,-6.635036496,1.157773088,-8.271519623
1035,54,Black,Tool,Incorrect,2,291,1.326086957,-6.635036496,1.157773088,2.737699755
1035,55,Black,Tool,Incorrect,2,312,1.326086957,-6.635036496,1.157773088,0.425345441
1035,59,White,Tool,Correct,1,344,1.326086957,-6.635036496,1.157773088,7.704659019
1035,60,White,Gun,Correct,1,532,1.326086957,-6.635036496,1.157773088,4.01885025
1035,65,Black,Tool,Correct,1,510,1.326086957,-6.635036496,1.157773088,-5.940722169
1035,66,White,Tool,Correct,1,324,1.326086957,-6.635036496,1.157773088,0.283200462
1035,67,White,Tool,Correct,1,288,1.326086957,-6.635036496,1.157773088,-1.759539849
1035,68,Black,Tool,Incorrect,2,320,1.326086957,-6.635036496,1.157773088,-8.799699821
1035,69,Black,Tool,Correct,1,461,1.326086957,-6.635036496,1.157773088,-7.581487091
1035,70,Black,Gun,Incorrect,2,400,1.326086957,-6.635036496,1.157773088,3.022448836
1035,71,Black,Tool,Correct,1,543,1.326086957,-6.635036496,1.157773088,1.128914041
1035,72,White,Tool,Correct,1,407,1.326086957,-6.635036496,1.157773088,-10.24407083
1035,73,White,Gun,Correct,1,489,1.326086957,-6.635036496,1.157773088,11.01772818
1035,74,White,Gun,Correct,1,413,1.326086957,-6.635036496,1.157773088,-16.22728087
1035,75,White,Tool,Correct,1,316,1.326086957,-6.635036496,1.157773088,-7.643826978
1035,76,White,Gun,Correct,1,372,1.326086957,-6.635036496,1.157773088,-0.594090485
1035,77,White,Gun,Correct,1,466,1.326086957,-6.635036496,1.157773088,1.271840632
1035,78,White,Gun,Incorrect,2,403,1.326086957,-6.635036496,1.157773088,-2.262007459
1035,79,White,Gun,Correct,1,601,1.326086957,-6.635036496,1.157773088,1.303369486
1035,80,Black,Tool,Incorrect,2,343,1.326086957,-6.635036496,1.157773088,-3.706408307
1035,81,White,Tool,Incorrect,2,345,1.326086957,-6.635036496,1.157773088,2.279581226
1035,82,White,Gun,Correct,1,474,1.326086957,-6.635036496,1.157773088,2.61112479
1035,83,White,Tool,Correct,1,542,1.326086957,-6.635036496,1.157773088,-3.322221037
1035,84,White,Gun,Incorrect,2,280,1.326086957,-6.635036496,1.157773088,10.51562069
1035,85,White,Gun,Incorrect,2,415,1.326086957,-6.635036496,1.157773088,-7.053387798
1035,86,White,Gun,Correct,1,584,1.326086957,-6.635036496,1.157773088,-1.705232494
1035,87,White,Gun,Correct,1,349,1.326086957,-6.635036496,1.157773088,-0.922805478
1035,88,White,Gun,Correct,1,351,1.326086957,-6.635036496,1.157773088,-6.089472805
1035,89,White,Gun,Correct,1,347,1.326086957,-6.635036496,1.157773088,-1.101230797
1035,91,Black,Gun,Correct,1,453,1.326086957,-6.635036496,1.157773088,-7.971202084
1035,92,Black,Gun,Correct,1,307,1.326086957,-6.635036496,1.157773088,-6.573597982
1035,93,Black,Tool,Incorrect,2,393,1.326086957,-6.635036496,1.157773088,-9.931173654
1035,96,Black,Gun,Incorrect,2,408,1.326086957,-6.635036496,1.157773088,-9.608371249
1035,97,White,Tool,Correct,1,365,1.326086957,-6.635036496,1.157773088,-5.181482848
1035,98,Black,Gun,Correct,1,332,1.326086957,-6.635036496,1.157773088,-2.500787232
1035,99,White,Gun,Correct,1,625,1.326086957,-6.635036496,1.157773088,-10.89239148
1035,100,Black,Tool,Incorrect,2,352,1.326086957,-6.635036496,1.157773088,-1.810889212
1035,101,Black,Tool,Correct,1,556,1.326086957,-6.635036496,1.157773088,2.843908524
1035,102,Black,Gun,Incorrect,2,283,1.326086957,-6.635036496,1.157773088,6.770479104
1035,103,White,Tool,Correct,1,348,1.326086957,-6.635036496,1.157773088,-11.22430025
1035,104,Black,Tool,Incorrect,2,306,1.326086957,-6.635036496,1.157773088,-3.957904488
1035,105,White,Tool,Correct,1,343,1.326086957,-6.635036496,1.157773088,1.937410788
1035,106,White,Tool,Correct,1,467,1.326086957,-6.635036496,1.157773088,-7.050601235
1035,107,Black,Gun,Incorrect,2,290,1.326086957,-6.635036496,1.157773088,5.048608383
1035,108,Black,Gun,Correct,1,307,1.326086957,-6.635036496,1.157773088,-2.995226129
1035,109,Black,Gun,Correct,1,415,1.326086957,-6.635036496,1.157773088,-4.42957917
1035,110,White,Tool,Incorrect,2,432,1.326086957,-6.635036496,1.157773088,-6.231815096
1035,111,Black,Gun,Incorrect,2,375,1.326086957,-6.635036496,1.157773088,6.685344309
1035,112,Black,Tool,Incorrect,2,375,1.326086957,-6.635036496,1.157773088,-0.909219906
1035,113,White,Tool,Correct,1,528,1.326086957,-6.635036496,1.157773088,-7.509798548
1035,114,White,Tool,Incorrect,2,367,1.326086957,-6.635036496,1.157773088,9.437506682
1035,115,White,Gun,Incorrect,2,329,1.326086957,-6.635036496,1.157773088,-1.651121179
1035,116,Black,Tool,Correct,1,516,1.326086957,-6.635036496,1.157773088,1.155287591
1035,117,Black,Tool,Incorrect,2,365,1.326086957,-6.635036496,1.157773088,-7.189880302
1035,118,Black,Tool,Incorrect,2,363,1.326086957,-6.635036496,1.157773088,-0.789287939
1035,119,Black,Tool,Correct,1,406,1.326086957,-6.635036496,1.157773088,0.246343178
1035,120,Black,Tool,Correct,1,435,1.326086957,-6.635036496,1.157773088,-7.083057246
1035,121,Black,Gun,Correct,1,379,1.326086957,-6.635036496,1.157773088,2.504278539
1035,123,White,Gun,Correct,1,561,1.326086957,-6.635036496,1.157773088,-1.131899255
1035,124,White,Tool,Correct,1,563,1.326086957,-6.635036496,1.157773088,8.742152089
1035,125,White,Gun,Correct,1,472,1.326086957,-6.635036496,1.157773088,0.416493107
1035,126,Black,Gun,Incorrect,2,389,1.326086957,-6.635036496,1.157773088,4.954849684
1035,128,White,Tool,Correct,1,444,1.326086957,-6.635036496,1.157773088,-4.834781716
1035,129,Black,Tool,Incorrect,2,424,1.326086957,-6.635036496,1.157773088,12.10239013
1035,130,Black,Tool,Correct,1,369,1.326086957,-6.635036496,1.157773088,3.509717294
1035,131,White,Tool,Correct,1,539,1.326086957,-6.635036496,1.157773088,5.18324629
1035,132,White,Tool,Correct,1,476,1.326086957,-6.635036496,1.157773088,0.264934408
1035,133,Black,Gun,Correct,1,437,1.326086957,-6.635036496,1.157773088,3.38625124
1035,134,Black,Gun,Correct,1,363,1.326086957,-6.635036496,1.157773088,9.520235962
1035,135,White,Tool,Correct,1,339,1.326086957,-6.635036496,1.157773088,-1.196798548
1035,136,White,Tool,Correct,1,443,1.326086957,-6.635036496,1.157773088,-0.906704771
1035,137,White,Tool,Incorrect,2,405,1.326086957,-6.635036496,1.157773088,2.612605837
1035,139,White,Tool,Correct,1,436,1.326086957,-6.635036496,1.157773088,-4.223991476
1035,140,White,Gun,Correct,1,561,1.326086957,-6.635036496,1.157773088,1.712518425
1035,141,White,Gun,Correct,1,649,1.326086957,-6.635036496,1.157773088,5.164909515
1035,142,Black,Gun,Incorrect,2,429,1.326086957,-6.635036496,1.157773088,1.112669345
1035,143,Black,Tool,Correct,1,585,1.326086957,-6.635036496,1.157773088,11.82508914
1035,144,Black,Gun,Correct,1,394,1.326086957,-6.635036496,1.157773088,2.38362083
1035,147,White,Gun,Incorrect,2,366,1.326086957,-6.635036496,1.157773088,-9.076942961
1035,148,White,Gun,Correct,1,458,1.326086957,-6.635036496,1.157773088,-4.88030364
1035,150,White,Gun,Correct,1,380,1.326086957,-6.635036496,1.157773088,3.307189713
1035,151,Black,Gun,Correct,1,462,1.326086957,-6.635036496,1.157773088,-3.479893739
1035,152,Black,Gun,Correct,1,371,1.326086957,-6.635036496,1.157773088,-4.933988788
1035,153,Black,Gun,Correct,1,410,1.326086957,-6.635036496,1.157773088,-0.181884262
1035,154,Black,Tool,Correct,1,417,1.326086957,-6.635036496,1.157773088,11.91975619
1035,155,Black,Gun,Correct,1,450,1.326086957,-6.635036496,1.157773088,-4.499685959
1035,156,Black,Tool,Incorrect,2,482,1.326086957,-6.635036496,1.157773088,5.186773871
1035,157,Black,Tool,Correct,1,521,1.326086957,-6.635036496,1.157773088,-1.052085959
1035,158,White,Gun,Correct,1,614,1.326086957,-6.635036496,1.157773088,4.292944309
1035,160,White,Gun,Correct,1,391,1.326086957,-6.635036496,1.157773088,-0.238476058
1035,162,White,Gun,Correct,1,571,1.326086957,-6.635036496,1.157773088,-1.814762621
1035,163,White,Gun,Correct,1,469,1.326086957,-6.635036496,1.157773088,-10.09584013
1035,164,White,Gun,Correct,1,581,1.326086957,-6.635036496,1.157773088,7.353693532
1035,165,Black,Tool,Incorrect,2,356,1.326086957,-6.635036496,1.157773088,0.598101169
1035,166,Black,Tool,Incorrect,2,353,1.326086957,-6.635036496,1.157773088,-1.067007459
1035,167,White,Tool,Correct,1,533,1.326086957,-6.635036496,1.157773088,0.66936397
1035,168,White,Tool,Correct,1,342,1.326086957,-6.635036496,1.157773088,-2.783913965
1035,169,Black,Gun,Correct,1,405,1.326086957,-6.635036496,1.157773088,5.58471984
1035,170,Black,Tool,Correct,1,426,1.326086957,-6.635036496,1.157773088,3.908154918
1035,171,White,Tool,Correct,1,418,1.326086957,-6.635036496,1.157773088,-9.608401942
1035,172,Black,Gun,Correct,1,340,1.326086957,-6.635036496,1.157773088,1.480144734
1035,173,Black,Gun,Incorrect,2,464,1.326086957,-6.635036496,1.157773088,10.62765888
1035,174,White,Tool,Incorrect,2,467,1.326086957,-6.635036496,1.157773088,0.959301169
1035,175,White,Tool,Correct,1,511,1.326086957,-6.635036496,1.157773088,-0.629656539
1035,176,White,Tool,Correct,1,391,1.326086957,-6.635036496,1.157773088,-3.387624007
1035,177,Black,Gun,Correct,1,354,1.326086957,-6.635036496,1.157773088,6.554330872
1035,178,White,Tool,Correct,1,396,1.326086957,-6.635036496,1.157773088,1.93201687
1035,179,Black,Gun,Correct,1,368,1.326086957,-6.635036496,1.157773088,-7.246580302
1035,180,White,Gun,Incorrect,2,382,1.326086957,-6.635036496,1.157773088,-7.296945931
1035,181,White,Gun,Correct,1,480,1.326086957,-6.635036496,1.157773088,5.63599438
1035,182,Black,Gun,Correct,1,404,1.326086957,-6.635036496,1.157773088,2.658307959
1035,183,Black,Gun,Incorrect,2,419,1.326086957,-6.635036496,1.157773088,5.923609515
1035,184,White,Tool,Correct,1,402,1.326086957,-6.635036496,1.157773088,0.442754635
1035,185,White,Tool,Correct,1,491,1.326086957,-6.635036496,1.157773088,0.337435823
1035,186,White,Tool,Correct,1,436,1.326086957,-6.635036496,1.157773088,2.628886742
1035,187,Black,Gun,Correct,1,480,1.326086957,-6.635036496,1.157773088,-3.298499538
1035,188,Black,Gun,Correct,1,598,1.326086957,-6.635036496,1.157773088,-2.260373654
1035,189,White,Tool,Correct,1,508,1.326086957,-6.635036496,1.157773088,-2.58620958
1035,190,Black,Gun,Correct,1,347,1.326086957,-6.635036496,1.157773088,-5.956667713
1035,192,White,Gun,Incorrect,2,343,1.326086957,-6.635036496,1.157773088,-0.271618208
1035,193,White,Tool,Correct,1,436,1.326086957,-6.635036496,1.157773088,-8.762330089
1035,194,Black,Tool,Correct,1,476,1.326086957,-6.635036496,1.157773088,-2.521729524
1035,195,White,Tool,Correct,1,434,1.326086957,-6.635036496,1.157773088,-9.559613682
1035,196,Black,Tool,Incorrect,2,437,1.326086957,-6.635036496,1.157773088,-2.378972381
1035,197,Black,Tool,Correct,1,473,1.326086957,-6.635036496,1.157773088,5.42007769
1035,198,Black,Gun,Correct,1,481,1.326086957,-6.635036496,1.157773088,3.173765526
1035,199,White,Tool,Correct,1,430,1.326086957,-6.635036496,1.157773088,4.487263829
1035,200,Black,Tool,Correct,1,510,1.326086957,-6.635036496,1.157773088,-0.752671249
1035,201,Black,Tool,Correct,1,475,1.326086957,-6.635036496,1.157773088,11.38198434
1035,202,Black,Tool,Incorrect,2,356,1.326086957,-6.635036496,1.157773088,-5.699349326
1035,204,Black,Gun,Incorrect,2,522,1.326086957,-6.635036496,1.157773088,-6.391055125
1035,205,Black,Tool,Correct,1,445,1.326086957,-6.635036496,1.157773088,10.32547656
1035,206,White,Gun,Correct,1,399,1.326086957,-6.635036496,1.157773088,2.613662697
1035,207,White,Gun,Correct,1,388,1.326086957,-6.635036496,1.157773088,0.254810929
1035,208,White,Gun,Correct,1,476,1.326086957,-6.635036496,1.157773088,-4.806090344
1035,209,White,Gun,Incorrect,2,342,1.326086957,-6.635036496,1.157773088,-3.267362055
1035,210,Black,Gun,Correct,1,365,1.326086957,-6.635036496,1.157773088,-10.92046022
1035,212,Black,Tool,Correct,1,540,1.326086957,-6.635036496,1.157773088,0.258834408
1035,217,White,Gun,Correct,1,539,1.326086957,-6.635036496,1.157773088,-5.043030797
1035,218,Black,Tool,Incorrect,2,408,1.326086957,-6.635036496,1.157773088,10.04944671
1035,219,Black,Tool,Correct,1,360,1.326086957,-6.635036496,1.157773088,5.764358029
1035,220,Black,Gun,Correct,1,382,1.326086957,-6.635036496,1.157773088,3.470873871
1035,221,White,Gun,Correct,1,444,1.326086957,-6.635036496,1.157773088,3.100800321
1035,222,White,Gun,Incorrect,2,417,1.326086957,-6.635036496,1.157773088,0.708817294
1035,223,White,Gun,Correct,1,369,1.326086957,-6.635036496,1.157773088,-2.506410995
1035,225,White,Gun,Correct,1,444,1.326086957,-6.635036496,1.157773088,-0.703527826
1035,226,White,Gun,Correct,1,385,1.326086957,-6.635036496,1.157773088,2.23525124
1035,227,Black,Gun,Correct,1,356,1.326086957,-6.635036496,1.157773088,-14.64389714
1035,228,Black,Gun,Correct,1,320,1.326086957,-6.635036496,1.157773088,4.449620689
1035,231,Black,Tool,Incorrect,2,425,1.326086957,-6.635036496,1.157773088,2.598528468
1035,232,White,Tool,Correct,1,559,1.326086957,-6.635036496,1.157773088,2.063728751
1035,233,White,Tool,Correct,1,527,1.326086957,-6.635036496,1.157773088,-3.030078038
1035,236,Black,Tool,Correct,1,316,1.326086957,-6.635036496,1.157773088,1.937129741
1035,237,Black,Gun,Correct,1,340,1.326086957,-6.635036496,1.157773088,0.13133257
1035,240,White,Tool,Correct,1,439,1.326086957,-6.635036496,1.157773088,3.890373164
1035,241,White,Tool,Correct,1,346,1.326086957,-6.635036496,1.157773088,-0.420770401
1035,242,Black,Tool,Incorrect,2,406,1.326086957,-6.635036496,1.157773088,7.293946855
1035,243,Black,Tool,Incorrect,2,351,1.326086957,-6.635036496,1.157773088,-1.787985959
1035,244,White,Gun,Incorrect,2,324,1.326086957,-6.635036496,1.157773088,-9.213560924
1035,245,White,Gun,Incorrect,2,340,1.326086957,-6.635036496,1.157773088,-1.919652862
1035,246,Black,Gun,Correct,1,593,1.326086957,-6.635036496,1.157773088,-0.449819623
1035,248,White,Tool,Correct,1,519,1.326086957,-6.635036496,1.157773088,-1.72503405
1035,250,Black,Gun,Correct,1,351,1.326086957,-6.635036496,1.157773088,-2.335676907
1035,251,White,Tool,Correct,1,420,1.326086957,-6.635036496,1.157773088,-2.193098689
1035,252,Black,Tool,Incorrect,2,370,1.326086957,-6.635036496,1.157773088,1.817642188
1035,253,Black,Gun,Incorrect,2,348,1.326086957,-6.635036496,1.157773088,-1.218610146
1035,255,Black,Gun,Correct,1,475,1.326086957,-6.635036496,1.157773088,0.879610646
1035,258,White,Gun,Correct,1,756,1.326086957,-6.635036496,1.157773088,-2.9712605
1035,259,Black,Gun,Correct,1,370,1.326086957,-6.635036496,1.157773088,7.268854776
1035,261,White,Gun,Correct,1,443,1.326086957,-6.635036496,1.157773088,4.668107393
1035,263,Black,Gun,Correct,1,351,1.326086957,-6.635036496,1.157773088,-1.763292749
1035,264,Black,Gun,Correct,1,375,1.326086957,-6.635036496,1.157773088,3.078546714
1035,266,White,Gun,Correct,1,392,1.326086957,-6.635036496,1.157773088,2.959274295
1035,267,Black,Gun,Correct,1,356,1.326086957,-6.635036496,1.157773088,7.314786742
1035,268,Black,Gun,Correct,1,410,1.326086957,-6.635036496,1.157773088,1.150707959
1035,269,Black,Tool,Correct,1,391,1.326086957,-6.635036496,1.157773088,-2.068346638
1035,270,Black,Tool,Correct,1,324,1.326086957,-6.635036496,1.157773088,-1.599481575
1035,271,Black,Gun,Correct,1,470,1.326086957,-6.635036496,1.157773088,4.484224225
1035,272,Black,Tool,Correct,1,497,1.326086957,-6.635036496,1.157773088,-0.09450463
1035,273,White,Tool,Incorrect,2,457,1.326086957,-6.635036496,1.157773088,6.101594805
1035,275,Black,Tool,Incorrect,2,416,1.326086957,-6.635036496,1.157773088,1.542781933
1035,277,White,Tool,Correct,1,352,1.326086957,-6.635036496,1.157773088,-0.227727826
1035,278,Black,Tool,Correct,1,474,1.326086957,-6.635036496,1.157773088,-2.718527402
1035,279,White,Tool,Correct,1,428,1.326086957,-6.635036496,1.157773088,-10.89465329
1035,280,Black,Gun,Correct,1,638,1.326086957,-6.635036496,1.157773088,-8.106557954
1035,281,Black,Tool,Incorrect,2,381,1.326086957,-6.635036496,1.157773088,0.796424649
1035,282,White,Gun,Incorrect,2,373,1.326086957,-6.635036496,1.157773088,2.889301594
1035,283,Black,Tool,Incorrect,2,362,1.326086957,-6.635036496,1.157773088,1.353439642
1035,284,Black,Tool,Correct,1,617,1.326086957,-6.635036496,1.157773088,4.994398906
1035,285,White,Gun,Correct,1,326,1.326086957,-6.635036496,1.157773088,5.828897068
1035,286,Black,Tool,Incorrect,2,429,1.326086957,-6.635036496,1.157773088,1.173859161
1035,287,White,Tool,Correct,1,349,1.326086957,-6.635036496,1.157773088,1.492321537
1035,288,Black,Tool,Correct,1,448,1.326086957,-6.635036496,1.157773088,-0.401135747
1035,289,Black,Tool,Correct,1,353,1.326086957,-6.635036496,1.157773088,-4.002945224
1035,290,Black,Tool,Correct,1,354,1.326086957,-6.635036496,1.157773088,6.712711778
1035,291,Black,Tool,Correct,1,591,1.326086957,-6.635036496,1.157773088,4.238085045
1035,292,White,Gun,Correct,1,542,1.326086957,-6.635036496,1.157773088,-2.521095577
1035,293,White,Gun,Correct,1,532,1.326086957,-6.635036496,1.157773088,-15.10400152
1035,294,White,Tool,Correct,1,408,1.326086957,-6.635036496,1.157773088,-1.560772098
1035,295,White,Tool,Correct,1,380,1.326086957,-6.635036496,1.157773088,-5.388431221
1035,296,White,Tool,Correct,1,295,1.326086957,-6.635036496,1.157773088,-0.425429524
1035,297,White,Tool,Incorrect,2,452,1.326086957,-6.635036496,1.157773088,-7.854216369
1035,298,Black,Tool,Correct,1,460,1.326086957,-6.635036496,1.157773088,3.086734974
1035,299,White,Gun,Correct,1,572,1.326086957,-6.635036496,1.157773088,-5.233779877
1035,300,Black,Tool,Incorrect,2,297,1.326086957,-6.635036496,1.157773088,4.011365384
1035,301,Black,Gun,Incorrect,2,317,1.326086957,-6.635036496,1.157773088,6.885659727
1035,302,White,Gun,Incorrect,2,334,1.326086957,-6.635036496,1.157773088,-1.475112975
1035,303,Black,Gun,Correct,1,465,1.326086957,-6.635036496,1.157773088,4.505016021
1035,304,Black,Gun,Correct,1,681,1.326086957,-6.635036496,1.157773088,0.219785894
1035,306,Black,Tool,Correct,1,359,1.326086957,-6.635036496,1.157773088,-3.581544092
1035,307,Black,Tool,Correct,1,587,1.326086957,-6.635036496,1.157773088,2.500035964
1035,308,White,Gun,Incorrect,2,297,1.326086957,-6.635036496,1.157773088,12.60298122
1035,309,Black,Gun,Correct,1,522,1.326086957,-6.635036496,1.157773088,5.909337945
1035,310,White,Gun,Correct,1,416,1.326086957,-6.635036496,1.157773088,1.808244451
1035,311,Black,Gun,Correct,1,311,1.326086957,-6.635036496,1.157773088,4.105591834
1035,312,White,Tool,Correct,1,367,1.326086957,-6.635036496,1.157773088,0.497416728
1035,313,Black,Gun,Correct,1,400,1.326086957,-6.635036496,1.157773088,-1.240106044
1035,314,White,Tool,Correct,1,346,1.326086957,-6.635036496,1.157773088,1.196184338
1035,315,White,Tool,Incorrect,2,461,1.326086957,-6.635036496,1.157773088,-1.896872522
1035,316,White,Tool,Correct,1,370,1.326086957,-6.635036496,1.157773088,7.063844592
1035,317,Black,Gun,Correct,1,458,1.326086957,-6.635036496,1.157773088,-3.180003357
1035,318,Black,Gun,Correct,1,383,1.326086957,-6.635036496,1.157773088,3.686293107
1035,319,White,Gun,Correct,1,475,1.326086957,-6.635036496,1.157773088,0.570553928
1035,320,Black,Tool,Correct,1,428,1.326086957,-6.635036496,1.157773088,4.05395421
1035,321,White,Gun,Correct,1,443,1.326086957,-6.635036496,1.157773088,4.718862273
1035,322,White,Gun,Correct,1,392,1.326086957,-6.635036496,1.157773088,1.740293107
1035,323,Black,Gun,Correct,1,375,1.326086957,-6.635036496,1.157773088,-1.21248214
1035,324,White,Tool,Correct,1,593,1.326086957,-6.635036496,1.157773088,-15.80744975
1035,325,White,Tool,Correct,1,495,1.326086957,-6.635036496,1.157773088,1.732919416
1035,326,Black,Tool,Correct,1,436,1.326086957,-6.635036496,1.157773088,-6.109524715
1035,327,White,Gun,Incorrect,2,329,1.326086957,-6.635036496,1.157773088,-4.382424007
1035,328,White,Tool,Incorrect,2,343,1.326086957,-6.635036496,1.157773088,0.996575851
1035,329,White,Tool,Correct,1,624,1.326086957,-6.635036496,1.157773088,2.125338369
1035,330,White,Tool,Correct,1,305,1.326086957,-6.635036496,1.157773088,0.335683206
1035,331,White,Gun,Incorrect,2,330,1.326086957,-6.635036496,1.157773088,0.124449543
1035,332,White,Gun,Correct,1,396,1.326086957,-6.635036496,1.157773088,-1.884820896
1035,333,White,Gun,Correct,1,354,1.326086957,-6.635036496,1.157773088,2.599381933
1035,334,White,Gun,Correct,1,465,1.326086957,-6.635036496,1.157773088,-9.432885252
1035,335,Black,Gun,Correct,1,561,1.326086957,-6.635036496,1.157773088,-1.125086384
1035,336,White,Gun,Correct,1,317,1.326086957,-6.635036496,1.157773088,-2.077021461
1035,338,White,Tool,Correct,1,561,1.326086957,-6.635036496,1.157773088,-3.433942536
1035,339,White,Tool,Incorrect,2,329,1.326086957,-6.635036496,1.157773088,11.00086849
1035,340,Black,Tool,Incorrect,2,371,1.326086957,-6.635036496,1.157773088,-6.216765874
1035,341,Black,Tool,Correct,1,321,1.326086957,-6.635036496,1.157773088,-1.515308307
1035,343,White,Gun,Incorrect,2,383,1.326086957,-6.635036496,1.157773088,-5.780273937
1035,345,Black,Tool,Incorrect,2,364,1.326086957,-6.635036496,1.157773088,7.320368355
1035,346,Black,Gun,Correct,1,403,1.326086957,-6.635036496,1.157773088,5.885519416
1035,347,White,Tool,Correct,1,441,1.326086957,-6.635036496,1.157773088,0.176924507
1035,348,White,Gun,Correct,1,573,1.326086957,-6.635036496,1.157773088,1.545635399
1035,349,Black,Gun,Correct,1,397,1.326086957,-6.635036496,1.157773088,2.571743744
1035,351,White,Gun,Correct,1,438,1.326086957,-6.635036496,1.157773088,-6.636704913
1035,352,Black,Tool,Correct,1,702,1.326086957,-6.635036496,1.157773088,8.398774012
1035,353,Black,Gun,Correct,1,486,1.326086957,-6.635036496,1.157773088,-0.085409156
1035,355,Black,Gun,Incorrect,2,370,1.326086957,-6.635036496,1.157773088,1.007839642
1035,357,Black,Gun,Correct,1,566,1.326086957,-6.635036496,1.157773088,4.46896694
1035,358,Black,Tool,Correct,1,567,1.326086957,-6.635036496,1.157773088,-4.439311136
1035,359,Black,Gun,Correct,1,368,1.326086957,-6.635036496,1.157773088,10.17343808
1035,361,White,Gun,Incorrect,2,311,1.326086957,-6.635036496,1.157773088,5.804099472
1035,363,White,Gun,Incorrect,2,390,1.326086957,-6.635036496,1.157773088,-5.865857812
1035,364,Black,Gun,Correct,1,333,1.326086957,-6.635036496,1.157773088,-0.108616935
1035,365,White,Gun,Correct,1,325,1.326086957,-6.635036496,1.157773088,-15.66973603
1035,366,Black,Tool,Correct,1,591,1.326086957,-6.635036496,1.157773088,8.76539438
1035,367,White,Tool,Incorrect,2,379,1.326086957,-6.635036496,1.157773088,-3.3262233
1035,368,Black,Tool,Correct,1,480,1.326086957,-6.635036496,1.157773088,-2.613537869
1035,369,Black,Gun,Correct,1,448,1.326086957,-6.635036496,1.157773088,4.370667365
1035,370,Black,Gun,Correct,1,460,1.326086957,-6.635036496,1.157773088,5.740429882
1035,371,White,Tool,Correct,1,340,1.326086957,-6.635036496,1.157773088,-3.685410287
1035,372,White,Tool,Correct,1,381,1.326086957,-6.635036496,1.157773088,10.23452337
1035,373,White,Tool,Correct,1,550,1.326086957,-6.635036496,1.157773088,-1.76105272
1035,374,White,Tool,Incorrect,2,316,1.326086957,-6.635036496,1.157773088,1.511919698
1035,375,Black,Gun,Correct,1,460,1.326086957,-6.635036496,1.157773088,4.694283348
1035,376,Black,Tool,Correct,1,456,1.326086957,-6.635036496,1.157773088,0.31792479
1035,377,Black,Gun,Correct,1,377,1.326086957,-6.635036496,1.157773088,1.38773257
1035,378,White,Tool,Correct,1,680,1.326086957,-6.635036496,1.157773088,0.631655766
1035,379,White,Tool,Correct,1,281,1.326086957,-6.635036496,1.157773088,-4.749811419
1035,380,Black,Tool,Incorrect,2,326,1.326086957,-6.635036496,1.157773088,11.38809424
1035,381,White,Gun,Incorrect,2,268,1.326086957,-6.635036496,1.157773088,-4.862004771
1035,383,White,Gun,Correct,1,461,1.326086957,-6.635036496,1.157773088,2.915153645
1035,385,White,Tool,Correct,1,308,1.326086957,-6.635036496,1.157773088,1.880807393
1035,386,White,Tool,Correct,1,545,1.326086957,-6.635036496,1.157773088,8.778272739
1035,388,Black,Gun,Incorrect,2,369,1.326086957,-6.635036496,1.157773088,1.201030307
1035,389,Black,Tool,Correct,1,551,1.326086957,-6.635036496,1.157773088,-2.948747063
1035,390,White,Tool,Correct,1,296,1.326086957,-6.635036496,1.157773088,4.735805837
1035,391,White,Tool,Correct,1,319,1.326086957,-6.635036496,1.157773088,-0.545080726
1035,392,White,Gun,Correct,1,369,1.326086957,-6.635036496,1.157773088,1.663013192
1035,394,White,Gun,Correct,1,366,1.326086957,-6.635036496,1.157773088,4.162094097
1035,396,White,Tool,Incorrect,2,288,1.326086957,-6.635036496,1.157773088,9.079531292
1035,397,Black,Gun,Correct,1,543,1.326086957,-6.635036496,1.157773088,5.360921679
1035,398,Black,Tool,Correct,1,407,1.326086957,-6.635036496,1.157773088,9.939005982
1035,399,Black,Gun,Incorrect,2,334,1.326086957,-6.635036496,1.157773088,1.64080711
1035,400,Black,Tool,Correct,1,341,1.326086957,-6.635036496,1.157773088,-0.121203923
1035,401,Black,Tool,Incorrect,2,336,1.326086957,-6.635036496,1.157773088,5.628036247
1035,402,White,Gun,Correct,1,364,1.326086957,-6.635036496,1.157773088,-6.199104488
1035,403,Black,Gun,Correct,1,330,1.326086957,-6.635036496,1.157773088,-1.653976483
1035,404,White,Gun,Incorrect,2,327,1.326086957,-6.635036496,1.157773088,-4.692287939
1035,405,White,Gun,Incorrect,2,392,1.326086957,-6.635036496,1.157773088,2.361025215
1035,406,Black,Gun,Correct,1,373,1.326086957,-6.635036496,1.157773088,-8.53109586
1035,407,Black,Gun,Correct,1,296,1.326086957,-6.635036496,1.157773088,-0.69177521
1035,408,Black,Tool,Incorrect,2,372,1.326086957,-6.635036496,1.157773088,8.894276702
1035,409,Black,Tool,Incorrect,2,436,1.326086957,-6.635036496,1.157773088,1.258674295
1035,412,Black,Tool,Incorrect,2,374,1.326086957,-6.635036496,1.157773088,3.417860717
1035,413,Black,Gun,Incorrect,2,365,1.326086957,-6.635036496,1.157773088,-3.147123583
1035,414,Black,Tool,Incorrect,2,333,1.326086957,-6.635036496,1.157773088,10.9426477
1035,415,Black,Gun,Correct,1,365,1.326086957,-6.635036496,1.157773088,-2.43103504
1035,416,Black,Gun,Correct,1,571,1.326086957,-6.635036496,1.157773088,5.57182083
1035,417,Black,Tool,Incorrect,2,386,1.326086957,-6.635036496,1.157773088,-3.707741829
1035,419,Black,Tool,Correct,1,497,1.326086957,-6.635036496,1.157773088,0.329532711
1035,421,Black,Tool,Correct,1,448,1.326086957,-6.635036496,1.157773088,-0.235212551
1035,422,White,Gun,Correct,1,462,1.326086957,-6.635036496,1.157773088,0.869157322
1035,423,Black,Tool,Correct,1,287,1.326086957,-6.635036496,1.157773088,0.8627238
1035,424,Black,Tool,Correct,1,446,1.326086957,-6.635036496,1.157773088,12.09557514
1035,425,Black,Tool,Correct,1,338,1.326086957,-6.635036496,1.157773088,5.353043744
1035,426,White,Tool,Correct,1,544,1.326086957,-6.635036496,1.157773088,-12.38948342
1035,427,Black,Gun,Correct,1,365,1.326086957,-6.635036496,1.157773088,5.650860717
1035,428,White,Gun,Incorrect,2,448,1.326086957,-6.635036496,1.157773088,-9.750791193
1035,429,White,Gun,Correct,1,350,1.326086957,-6.635036496,1.157773088,-0.864775917
1035,430,White,Gun,Correct,1,435,1.326086957,-6.635036496,1.157773088,3.846637803
1035,431,White,Gun,Correct,1,383,1.326086957,-6.635036496,1.157773088,-4.535573229
1035,432,Black,Gun,Correct,1,445,1.326086957,-6.635036496,1.157773088,-2.595168138
1035,434,White,Gun,Correct,1,388,1.326086957,-6.635036496,1.157773088,-0.028039849
1035,435,White,Tool,Incorrect,2,405,1.326086957,-6.635036496,1.157773088,-8.989471674
1035,436,Black,Gun,Incorrect,2,428,1.326086957,-6.635036496,1.157773088,-0.530289637
1035,437,White,Gun,Correct,1,383,1.326086957,-6.635036496,1.157773088,-5.263100528
1035,438,Black,Gun,Correct,1,406,1.326086957,-6.635036496,1.157773088,-1.807843102
1035,439,White,Tool,Correct,1,362,1.326086957,-6.635036496,1.157773088,-3.715892183
1035,440,White,Gun,Correct,1,521,1.326086957,-6.635036496,1.157773088,1.260640208
1035,441,White,Tool,Incorrect,2,364,1.326086957,-6.635036496,1.157773088,2.505708807
1035,442,Black,Tool,Correct,1,515,1.326086957,-6.635036496,1.157773088,-0.297296567
1035,443,White,Tool,Correct,1,476,1.326086957,-6.635036496,1.157773088,1.92444827
1035,444,White,Gun,Correct,1,473,1.326086957,-6.635036496,1.157773088,4.884243885
1035,445,White,Tool,Correct,1,617,1.326086957,-6.635036496,1.157773088,-5.531636313
1035,446,White,Tool,Correct,1,387,1.326086957,-6.635036496,1.157773088,-0.304233908
1035,447,White,Tool,Correct,1,315,1.326086957,-6.635036496,1.157773088,-6.567428816
1035,448,White,Tool,Correct,1,433,1.326086957,-6.635036496,1.157773088,6.49954728
1037,32,White,Gun,Correct,1,370,9.326086957,15.3649635,-0.292546439,NA
1037,34,White,Tool,Correct,1,408,9.326086957,15.3649635,-0.292546439,0.570979112
1037,38,Black,Tool,Correct,1,481,9.326086957,15.3649635,-0.292546439,4.315602875
1037,42,White,Gun,Incorrect,2,382,9.326086957,15.3649635,-0.292546439,-8.661581001
1037,43,Black,Gun,Correct,1,404,9.326086957,15.3649635,-0.292546439,10.81616214
1037,46,Black,Gun,Incorrect,2,390,9.326086957,15.3649635,-0.292546439,-0.997826263
1037,49,White,Gun,Correct,1,376,9.326086957,15.3649635,-0.292546439,-11.95066643
1037,51,White,Gun,Correct,1,377,9.326086957,15.3649635,-0.292546439,-6.100466008
1037,53,White,Gun,Correct,1,370,9.326086957,15.3649635,-0.292546439,-7.259203066
1037,54,White,Gun,Correct,1,380,9.326086957,15.3649635,-0.292546439,-1.599223292
1037,55,Black,Tool,Correct,1,458,9.326086957,15.3649635,-0.292546439,-7.453054127
1037,56,White,Gun,Correct,1,436,9.326086957,15.3649635,-0.292546439,-13.1152786
1037,57,White,Gun,Correct,1,437,9.326086957,15.3649635,-0.292546439,16.8120207
1037,59,White,Tool,Correct,1,619,9.326086957,15.3649635,-0.292546439,-4.616661765
1037,60,White,Gun,Correct,1,384,9.326086957,15.3649635,-0.292546439,-14.50984691
1037,61,Black,Tool,Correct,1,406,9.326086957,15.3649635,-0.292546439,-1.049395711
1037,62,Black,Tool,Correct,1,485,9.326086957,15.3649635,-0.292546439,3.707120555
1037,64,Black,Tool,Incorrect,2,372,9.326086957,15.3649635,-0.292546439,4.369089579
1037,66,Black,Gun,Correct,1,378,9.326086957,15.3649635,-0.292546439,5.879004572
1037,68,Black,Gun,Correct,1,382,9.326086957,15.3649635,-0.292546439,6.297315463
1037,69,Black,Gun,Correct,1,373,9.326086957,15.3649635,-0.292546439,-6.358139417
1037,70,White,Gun,Correct,1,393,9.326086957,15.3649635,-0.292546439,-9.394464028
1037,71,Black,Gun,Correct,1,394,9.326086957,15.3649635,-0.292546439,-3.36348185
1037,72,Black,Gun,Correct,1,366,9.326086957,15.3649635,-0.292546439,3.260203299
1037,73,Black,Tool,Correct,1,479,9.326086957,15.3649635,-0.292546439,0.551347429
1037,74,White,Gun,Correct,1,593,9.326086957,15.3649635,-0.292546439,-10.22145837
1037,75,Black,Gun,Correct,1,391,9.326086957,15.3649635,-0.292546439,14.57289948
1037,76,White,Tool,Correct,1,442,9.326086957,15.3649635,-0.292546439,-2.140476758
1037,77,Black,Gun,Correct,1,367,9.326086957,15.3649635,-0.292546439,1.782904713
1037,78,White,Tool,Correct,1,421,9.326086957,15.3649635,-0.292546439,-14.74039585
1037,79,White,Tool,Correct,1,390,9.326086957,15.3649635,-0.292546439,-3.379093024
1037,80,White,Tool,Incorrect,2,557,9.326086957,15.3649635,-0.292546439,-7.7280868
1037,81,White,Tool,Correct,1,416,9.326086957,15.3649635,-0.292546439,-3.11934267
1037,82,White,Tool,Correct,1,478,9.326086957,15.3649635,-0.292546439,-3.956191468
1037,83,White,Tool,Incorrect,2,376,9.326086957,15.3649635,-0.292546439,-4.018008441
1037,84,White,Tool,Correct,1,454,9.326086957,15.3649635,-0.292546439,-7.675548045
1037,85,White,Tool,Correct,1,425,9.326086957,15.3649635,-0.292546439,-4.750948469
1037,86,Black,Gun,Correct,1,476,9.326086957,15.3649635,-0.292546439,-8.412447196
1037,87,White,Tool,Incorrect,2,497,9.326086957,15.3649635,-0.292546439,-1.946474919
1037,88,Black,Tool,Correct,1,425,9.326086957,15.3649635,-0.292546439,-3.93365738
1037,89,Black,Gun,Correct,1,383,9.326086957,15.3649635,-0.292546439,-4.270670534
1037,90,Black,Tool,Incorrect,2,561,9.326086957,15.3649635,-0.292546439,5.084065534
1037,91,Black,Gun,Incorrect,2,328,9.326086957,15.3649635,-0.292546439,6.022246722
1037,92,Black,Tool,Correct,1,420,9.326086957,15.3649635,-0.292546439,-12.40831594
1037,93,Black,Tool,Incorrect,2,481,9.326086957,15.3649635,-0.292546439,3.189946439
1037,95,Black,Gun,Correct,1,385,9.326086957,15.3649635,-0.292546439,-5.355658229
1037,96,Black,Tool,Correct,1,421,9.326086957,15.3649635,-0.292546439,-1.848657946
1037,97,Black,Gun,Correct,1,378,9.326086957,15.3649635,-0.292546439,1.717983921
1037,98,Black,Gun,Correct,1,433,9.326086957,15.3649635,-0.292546439,-0.697971807
1037,99,Black,Gun,Correct,1,439,9.326086957,15.3649635,-0.292546439,-4.103965018
1037,100,Black,Gun,Correct,1,356,9.326086957,15.3649635,-0.292546439,4.820693681
1037,101,Black,Tool,Correct,1,448,9.326086957,15.3649635,-0.292546439,-4.866447903
1037,102,Black,Tool,Correct,1,470,9.326086957,15.3649635,-0.292546439,2.936267938
1037,103,Black,Tool,Correct,1,412,9.326086957,15.3649635,-0.292546439,5.772273596
1037,104,Black,Gun,Correct,1,433,9.326086957,15.3649635,-0.292546439,11.01885309
1037,105,White,Tool,Correct,1,414,9.326086957,15.3649635,-0.292546439,0.470190852
1037,106,Black,Gun,Correct,1,414,9.326086957,15.3649635,-0.292546439,10.49323753
1037,107,White,Tool,Correct,1,483,9.326086957,15.3649635,-0.292546439,-3.751409997
1037,108,White,Tool,Correct,1,402,9.326086957,15.3649635,-0.292546439,10.0544562
1037,109,White,Tool,Incorrect,2,441,9.326086957,15.3649635,-0.292546439,10.00147586
1037,110,Black,Tool,Correct,1,455,9.326086957,15.3649635,-0.292546439,18.83570853
1037,111,White,Tool,Correct,1,479,9.326086957,15.3649635,-0.292546439,9.392815887
1037,112,White,Tool,Incorrect,2,489,9.326086957,15.3649635,-0.292546439,5.335555633
1037,113,White,Tool,Correct,1,360,9.326086957,15.3649635,-0.292546439,1.348106835
1037,114,White,Tool,Correct,1,359,9.326086957,15.3649635,-0.292546439,-1.704399813
1037,115,White,Gun,Incorrect,2,349,9.326086957,15.3649635,-0.292546439,-5.75481622
1037,116,Black,Gun,Correct,1,439,9.326086957,15.3649635,-0.292546439,-3.516744226
1037,117,White,Tool,Correct,1,355,9.326086957,15.3649635,-0.292546439,-7.505486659
1037,118,White,Tool,Incorrect,2,493,9.326086957,15.3649635,-0.292546439,-14.6762793
1037,119,Black,Gun,Correct,1,413,9.326086957,15.3649635,-0.292546439,2.619281092
1037,121,White,Gun,Correct,1,432,9.326086957,15.3649635,-0.292546439,-9.103200096
1037,122,Black,Gun,Correct,1,461,9.326086957,15.3649635,-0.292546439,7.469930597
1037,123,Black,Gun,Correct,1,469,9.326086957,15.3649635,-0.292546439,1.385177698
1037,126,Black,Tool,Incorrect,2,421,9.326086957,15.3649635,-0.292546439,-5.305287083
1037,127,White,Gun,Correct,1,449,9.326086957,15.3649635,-0.292546439,-3.535757521
1037,128,White,Gun,Correct,1,389,9.326086957,15.3649635,-0.292546439,-5.789083688
1037,129,White,Tool,Correct,1,365,9.326086957,15.3649635,-0.292546439,2.625693964
1037,130,White,Gun,Correct,1,641,9.326086957,15.3649635,-0.292546439,-9.760737721
1037,131,Black,Gun,Correct,1,421,9.326086957,15.3649635,-0.292546439,4.114158037
1037,132,White,Gun,Correct,1,468,9.326086957,15.3649635,-0.292546439,-0.166713816
1037,133,White,Gun,Correct,1,375,9.326086957,15.3649635,-0.292546439,9.878662705
1037,134,Black,Gun,Correct,1,522,9.326086957,15.3649635,-0.292546439,-5.227919473
1037,135,White,Tool,Correct,1,393,9.326086957,15.3649635,-0.292546439,-6.875435173
1037,136,White,Tool,Incorrect,2,380,9.326086957,15.3649635,-0.292546439,2.520881517
1037,137,Black,Tool,Correct,1,426,9.326086957,15.3649635,-0.292546439,-3.726099388
1037,138,Black,Tool,Correct,1,434,9.326086957,15.3649635,-0.292546439,4.951983497
1037,139,Black,Gun,Correct,1,416,9.326086957,15.3649635,-0.292546439,3.377436114
1037,140,White,Gun,Correct,1,526,9.326086957,15.3649635,-0.292546439,1.740188872
1037,141,White,Gun,Correct,1,428,9.326086957,15.3649635,-0.292546439,8.599820696
1037,142,White,Gun,Correct,1,383,9.326086957,15.3649635,-0.292546439,-4.307580294
1037,143,White,Gun,Correct,1,443,9.326086957,15.3649635,-0.292546439,-5.041703349
1037,144,White,Gun,Incorrect,2,408,9.326086957,15.3649635,-0.292546439,-9.398298964
1037,145,White,Gun,Correct,1,350,9.326086957,15.3649635,-0.292546439,1.190664119
1037,146,Black,Tool,Correct,1,487,9.326086957,15.3649635,-0.292546439,-20.09518991
1037,147,Black,Tool,Incorrect,2,481,9.326086957,15.3649635,-0.292546439,4.360041206
1037,148,Black,Tool,Correct,1,597,9.326086957,15.3649635,-0.292546439,0.536863129
1037,150,Black,Tool,Correct,1,422,9.326086957,15.3649635,-0.292546439,-11.84700363
1037,151,Black,Tool,Correct,1,515,9.326086957,15.3649635,-0.292546439,-1.190306178
1037,152,Black,Tool,Correct,1,410,9.326086957,15.3649635,-0.292546439,-6.679570393
1037,153,White,Gun,Incorrect,2,396,9.326086957,15.3649635,-0.292546439,-1.52261028
1037,154,White,Gun,Correct,1,374,9.326086957,15.3649635,-0.292546439,-3.596295569
1037,156,Black,Gun,Correct,1,427,9.326086957,15.3649635,-0.292546439,4.310329324
1037,158,Black,Tool,Correct,1,387,9.326086957,15.3649635,-0.292546439,-7.217158229
1037,159,Black,Gun,Correct,1,351,9.326086957,15.3649635,-0.292546439,-6.821784537
1037,161,Black,Gun,Correct,1,381,9.326086957,15.3649635,-0.292546439,2.465647146
1037,162,Black,Gun,Correct,1,391,9.326086957,15.3649635,-0.292546439,13.82085507
1037,163,Black,Gun,Correct,1,373,9.326086957,15.3649635,-0.292546439,3.39959651
1037,164,Black,Gun,Correct,1,457,9.326086957,15.3649635,-0.292546439,1.376278405
1037,165,Black,Gun,Correct,1,463,9.326086957,15.3649635,-0.292546439,-2.797583688
1037,170,Black,Tool,Incorrect,2,444,9.326086957,15.3649635,-0.292546439,-7.308325838
1037,171,White,Tool,Correct,1,475,9.326086957,15.3649635,-0.292546439,-5.976696418
1037,172,Black,Tool,Incorrect,2,399,9.326086957,15.3649635,-0.292546439,3.311390286
1037,173,White,Tool,Incorrect,2,494,9.326086957,15.3649635,-0.292546439,-15.43130717
1037,175,Black,Gun,Correct,1,476,9.326086957,15.3649635,-0.292546439,7.333512634
1037,176,Black,Tool,Correct,1,430,9.326086957,15.3649635,-0.292546439,-13.34108807
1037,177,White,Tool,Correct,1,455,9.326086957,15.3649635,-0.292546439,-9.037611835
1037,178,White,Tool,Correct,1,433,9.326086957,15.3649635,-0.292546439,-4.968373222
1037,179,White,Tool,Incorrect,2,473,9.326086957,15.3649635,-0.292546439,0.768718716
1037,180,White,Gun,Correct,1,547,9.326086957,15.3649635,-0.292546439,2.001849126
1037,181,White,Gun,Correct,1,422,9.326086957,15.3649635,-0.292546439,-3.72711127
1037,182,White,Gun,Correct,1,359,9.326086957,15.3649635,-0.292546439,4.104453935
1037,183,White,Tool,Correct,1,417,9.326086957,15.3649635,-0.292546439,1.785643469
1037,184,Black,Tool,Correct,1,519,9.326086957,15.3649635,-0.292546439,3.208715463
1037,185,White,Gun,Correct,1,344,9.326086957,15.3649635,-0.292546439,-2.383843094
1037,186,White,Tool,Incorrect,2,336,9.326086957,15.3649635,-0.292546439,-4.183841538
1037,188,White,Tool,Correct,1,360,9.326086957,15.3649635,-0.292546439,7.743763412
1037,189,White,Gun,Correct,1,529,9.326086957,15.3649635,-0.292546439,-3.903782415
1037,190,White,Tool,Correct,1,404,9.326086957,15.3649635,-0.292546439,-3.823503773
1037,191,Black,Tool,Incorrect,2,386,9.326086957,15.3649635,-0.292546439,6.6806818
1037,192,Black,Gun,Correct,1,354,9.326086957,15.3649635,-0.292546439,-0.501810704
1037,194,Black,Gun,Incorrect,2,445,9.326086957,15.3649635,-0.292546439,2.093334275
1037,195,White,Tool,Correct,1,452,9.326086957,15.3649635,-0.292546439,11.94028279
1037,196,Black,Gun,Correct,1,416,9.326086957,15.3649635,-0.292546439,11.88086723
1037,197,White,Tool,Correct,1,425,9.326086957,15.3649635,-0.292546439,8.987418292
1037,198,White,Gun,Correct,1,434,9.326086957,15.3649635,-0.292546439,7.982717868
1037,199,Black,Tool,Correct,1,599,9.326086957,15.3649635,-0.292546439,-0.164257804
1037,200,White,Gun,Correct,1,436,9.326086957,15.3649635,-0.292546439,3.488279961
1037,201,Black,Gun,Correct,1,531,9.326086957,15.3649635,-0.292546439,16.13489326
1037,202,Black,Gun,Correct,1,357,9.326086957,15.3649635,-0.292546439,4.848054926
1037,203,Black,Tool,Incorrect,2,433,9.326086957,15.3649635,-0.292546439,7.031070767
1037,204,Black,Gun,Correct,1,375,9.326086957,15.3649635,-0.292546439,0.744660866
1037,205,White,Tool,Correct,1,376,9.326086957,15.3649635,-0.292546439,-0.277651298
1037,206,Black,Tool,Incorrect,2,380,9.326086957,15.3649635,-0.292546439,-8.570536729
1037,207,Black,Gun,Correct,1,347,9.326086957,15.3649635,-0.292546439,-1.606640548
1037,208,Black,Gun,Correct,1,397,9.326086957,15.3649635,-0.292546439,-4.420299388
1037,209,Black,Tool,Incorrect,2,388,9.326086957,15.3649635,-0.292546439,9.991715463
1037,210,White,Gun,Correct,1,496,9.326086957,15.3649635,-0.292546439,0.383723242
1037,212,Black,Gun,Correct,1,478,9.326086957,15.3649635,-0.292546439,-1.059095004
1037,213,White,Tool,Correct,1,398,9.326086957,15.3649635,-0.292546439,-0.832565301
1037,214,Black,Tool,Correct,1,515,9.326086957,15.3649635,-0.292546439,-0.827868554
1037,215,Black,Tool,Correct,1,419,9.326086957,15.3649635,-0.292546439,-4.748269685
1037,217,White,Tool,Correct,1,376,9.326086957,15.3649635,-0.292546439,-7.662148328
1037,219,White,Tool,Incorrect,2,403,9.326086957,15.3649635,-0.292546439,0.338644034
1037,220,Black,Tool,Correct,1,407,9.326086957,15.3649635,-0.292546439,16.86596865
1037,221,Black,Tool,Incorrect,2,371,9.326086957,15.3649635,-0.292546439,9.074520838
1037,222,White,Tool,Correct,1,427,9.326086957,15.3649635,-0.292546439,-4.762667705
1037,223,White,Tool,Correct,1,382,9.326086957,15.3649635,-0.292546439,-0.569830082
1037,225,Black,Gun,Correct,1,371,9.326086957,15.3649635,-0.292546439,-1.04621028
1037,226,Black,Gun,Correct,1,424,9.326086957,15.3649635,-0.292546439,2.046116029
1037,227,White,Tool,Incorrect,2,447,9.326086957,15.3649635,-0.292546439,4.357950117
1037,229,Black,Tool,Correct,1,434,9.326086957,15.3649635,-0.292546439,-0.240687224
1037,231,White,Gun,Correct,1,364,9.326086957,15.3649635,-0.292546439,2.148965392
1037,235,White,Tool,Correct,1,399,9.326086957,15.3649635,-0.292546439,-9.042642246
1037,238,White,Gun,Correct,1,461,9.326086957,15.3649635,-0.292546439,-4.247243377
1037,239,Black,Tool,Correct,1,531,9.326086957,15.3649635,-0.292546439,12.30364955
1037,242,White,Gun,Correct,1,364,9.326086957,15.3649635,-0.292546439,-11.8269141
1037,244,Black,Gun,Incorrect,2,370,9.326086957,15.3649635,-0.292546439,11.17283413
1037,247,White,Gun,Correct,1,359,9.326086957,15.3649635,-0.292546439,-6.993269685
1037,248,Black,Gun,Correct,1,493,9.326086957,15.3649635,-0.292546439,-6.03673093
1037,249,White,Gun,Correct,1,383,9.326086957,15.3649635,-0.292546439,3.364850399
1037,250,White,Gun,Correct,1,434,9.326086957,15.3649635,-0.292546439,-1.466722302
1037,251,White,Gun,Correct,1,386,9.326086957,15.3649635,-0.292546439,5.413100753
1037,252,White,Gun,Correct,1,354,9.326086957,15.3649635,-0.292546439,7.669506269
1037,253,White,Gun,Correct,1,343,9.326086957,15.3649635,-0.292546439,1.067717019
1037,254,White,Gun,Correct,1,750,9.326086957,15.3649635,-0.292546439,2.665622394
1037,256,Black,Tool,Incorrect,2,398,9.326086957,15.3649635,-0.292546439,-13.099338
1037,259,White,Gun,Correct,1,486,9.326086957,15.3649635,-0.292546439,1.915222677
1037,260,Black,Gun,Correct,1,383,9.326086957,15.3649635,-0.292546439,-2.820610845
1037,262,White,Gun,Correct,1,359,9.326086957,15.3649635,-0.292546439,1.173634699
1037,263,White,Gun,Correct,1,337,9.326086957,15.3649635,-0.292546439,-12.16080377
1037,264,White,Gun,Correct,1,328,9.326086957,15.3649635,-0.292546439,5.678082083
1037,265,White,Tool,Correct,1,478,9.326086957,15.3649635,-0.292546439,-2.396240265
1037,266,White,Gun,Correct,1,371,9.326086957,15.3649635,-0.292546439,-3.57510349
1037,267,Black,Tool,Incorrect,2,441,9.326086957,15.3649635,-0.292546439,2.066836397
1037,268,Black,Tool,Correct,1,417,9.326086957,15.3649635,-0.292546439,-3.477009714
1037,269,White,Tool,Correct,1,529,9.326086957,15.3649635,-0.292546439,-4.412714523
1037,270,White,Gun,Correct,1,325,9.326086957,15.3649635,-0.292546439,-13.79111353
1037,271,Black,Tool,Incorrect,2,444,9.326086957,15.3649635,-0.292546439,-0.338332769
1037,272,Black,Tool,Incorrect,2,387,9.326086957,15.3649635,-0.292546439,-0.901712118
1037,273,Black,Gun,Correct,1,479,9.326086957,15.3649635,-0.292546439,11.55851532
1037,274,White,Tool,Correct,1,433,9.326086957,15.3649635,-0.292546439,-3.742095852
1037,276,Black,Tool,Correct,1,479,9.326086957,15.3649635,-0.292546439,-3.540858936
1037,278,White,Tool,Correct,1,420,9.326086957,15.3649635,-0.292546439,-1.558872656
1037,279,White,Gun,Correct,1,483,9.326086957,15.3649635,-0.292546439,-5.471811411
1037,280,White,Tool,Incorrect,2,609,9.326086957,15.3649635,-0.292546439,1.625625505
1037,281,White,Tool,Correct,1,484,9.326086957,15.3649635,-0.292546439,6.308149551
1037,282,White,Gun,Correct,1,442,9.326086957,15.3649635,-0.292546439,-3.605884396
1037,283,Black,Tool,Correct,1,408,9.326086957,15.3649635,-0.292546439,5.405219423
1037,284,Black,Tool,Correct,1,380,9.326086957,15.3649635,-0.292546439,-1.137506319
1037,287,White,Tool,Correct,1,470,9.326086957,15.3649635,-0.292546439,0.398633426
1037,289,White,Tool,Incorrect,2,384,9.326086957,15.3649635,-0.292546439,2.864780951
1037,290,White,Gun,Correct,1,409,9.326086957,15.3649635,-0.292546439,4.433270484
1037,295,White,Tool,Correct,1,447,9.326086957,15.3649635,-0.292546439,-3.915124424
1037,297,Black,Gun,Correct,1,371,9.326086957,15.3649635,-0.292546439,-0.998816644
1037,298,White,Tool,Incorrect,2,362,9.326086957,15.3649635,-0.292546439,-3.655959077
1037,299,Black,Gun,Correct,1,439,9.326086957,15.3649635,-0.292546439,0.238627486
1037,300,White,Tool,Correct,1,412,9.326086957,15.3649635,-0.292546439,-2.799638427
1037,301,Black,Gun,Correct,1,379,9.326086957,15.3649635,-0.292546439,-3.491131496
1037,302,Black,Gun,Correct,1,353,9.326086957,15.3649635,-0.292546439,10.6492719
1037,303,Black,Gun,Correct,1,386,9.326086957,15.3649635,-0.292546439,14.2341893
1037,304,White,Gun,Correct,1,429,9.326086957,15.3649635,-0.292546439,-2.477875909
1037,305,Black,Tool,Incorrect,2,378,9.326086957,15.3649635,-0.292546439,6.907869353
1037,306,White,Tool,Correct,1,457,9.326086957,15.3649635,-0.292546439,8.174622818
1037,307,White,Gun,Correct,1,454,9.326086957,15.3649635,-0.292546439,-7.061234891
1037,308,Black,Tool,Correct,1,531,9.326086957,15.3649635,-0.292546439,-0.028926263
1037,309,White,Tool,Incorrect,2,389,9.326086957,15.3649635,-0.292546439,2.580404713
1037,310,Black,Gun,Correct,1,372,9.326086957,15.3649635,-0.292546439,13.12710061
1037,312,Black,Gun,Correct,1,456,9.326086957,15.3649635,-0.292546439,7.0445661
1037,313,Black,Tool,Correct,1,380,9.326086957,15.3649635,-0.292546439,-0.358133476
1037,315,Black,Gun,Correct,1,433,9.326086957,15.3649635,-0.292546439,-8.60027605
1037,317,Black,Tool,Correct,1,408,9.326086957,15.3649635,-0.292546439,-2.069650591
1037,321,Black,Gun,Correct,1,508,9.326086957,15.3649635,-0.292546439,6.119839084
1037,322,White,Tool,Incorrect,2,441,9.326086957,15.3649635,-0.292546439,-3.230004905
1037,323,White,Tool,Correct,1,384,9.326086957,15.3649635,-0.292546439,9.445129466
1037,324,Black,Gun,Correct,1,437,9.326086957,15.3649635,-0.292546439,6.889732719
1037,325,Black,Gun,Correct,1,403,9.326086957,15.3649635,-0.292546439,-0.360763179
1037,326,Black,Gun,Correct,1,379,9.326086957,15.3649635,-0.292546439,-10.75434041
1037,327,Black,Gun,Correct,1,385,9.326086957,15.3649635,-0.292546439,-0.208281991
1037,328,Black,Gun,Correct,1,579,9.326086957,15.3649635,-0.292546439,-2.391268554
1037,329,Black,Gun,Correct,1,396,9.326086957,15.3649635,-0.292546439,-0.901416079
1037,330,Black,Gun,Correct,1,383,9.326086957,15.3649635,-0.292546439,-1.941429091
1037,331,White,Tool,Incorrect,2,370,9.326086957,15.3649635,-0.292546439,-8.376554834
1037,332,Black,Tool,Correct,1,489,9.326086957,15.3649635,-0.292546439,0.074849409
1037,333,White,Tool,Correct,1,449,9.326086957,15.3649635,-0.292546439,-3.21161523
1037,334,Black,Tool,Correct,1,396,9.326086957,15.3649635,-0.292546439,0.599674728
1037,335,Black,Tool,Incorrect,2,645,9.326086957,15.3649635,-0.292546439,9.095163836
1037,337,White,Gun,Correct,1,366,9.326086957,15.3649635,-0.292546439,12.95898802
1037,338,White,Gun,Correct,1,376,9.326086957,15.3649635,-0.292546439,-0.596085244
1037,339,Black,Tool,Correct,1,813,9.326086957,15.3649635,-0.292546439,4.340966665
1037,340,Black,Gun,Correct,1,368,9.326086957,15.3649635,-0.292546439,1.324678122
1037,345,Black,Tool,Incorrect,2,385,9.326086957,15.3649635,-0.292546439,-6.039058936
1037,346,Black,Tool,Correct,1,368,9.326086957,15.3649635,-0.292546439,-2.131199388
1037,347,Black,Tool,Correct,1,412,9.326086957,15.3649635,-0.292546439,0.625013483
1037,352,Black,Gun,Correct,1,390,9.326086957,15.3649635,-0.292546439,-15.78036601
1037,353,White,Gun,Correct,1,498,9.326086957,15.3649635,-0.292546439,1.129388872
1037,354,White,Tool,Incorrect,2,432,9.326086957,15.3649635,-0.292546439,-0.668272514
1037,357,Black,Gun,Correct,1,409,9.326086957,15.3649635,-0.292546439,-4.314088922
1037,358,Black,Tool,Correct,1,440,9.326086957,15.3649635,-0.292546439,3.6548132
1037,359,White,Tool,Incorrect,2,344,9.326086957,15.3649635,-0.292546439,-4.816925272
1037,361,Black,Tool,Incorrect,2,398,9.326086957,15.3649635,-0.292546439,-1.564137295
1037,362,Black,Gun,Correct,1,410,9.326086957,15.3649635,-0.292546439,-13.35286049
1037,363,Black,Gun,Correct,1,603,9.326086957,15.3649635,-0.292546439,3.13910344
1037,364,White,Tool,Correct,1,402,9.326086957,15.3649635,-0.292546439,-2.821304622
1037,365,White,Gun,Correct,1,476,9.326086957,15.3649635,-0.292546439,-6.206551864
1037,366,White,Tool,Incorrect,2,383,9.326086957,15.3649635,-0.292546439,-6.030786234
1037,367,White,Tool,Correct,1,409,9.326086957,15.3649635,-0.292546439,-4.520129374
1037,370,White,Tool,Incorrect,2,376,9.326086957,15.3649635,-0.292546439,-0.87191523
1037,371,White,Tool,Correct,1,411,9.326086957,15.3649635,-0.292546439,-1.450297691
1037,372,Black,Gun,Correct,1,395,9.326086957,15.3649635,-0.292546439,1.132063554
1037,373,White,Tool,Incorrect,2,510,9.326086957,15.3649635,-0.292546439,9.218449834
1037,374,White,Tool,Correct,1,522,9.326086957,15.3649635,-0.292546439,4.606273455
1037,378,Black,Tool,Correct,1,469,9.326086957,15.3649635,-0.292546439,-10.8014735
1037,384,Black,Gun,Correct,1,365,9.326086957,15.3649635,-0.292546439,1.071899621
1037,385,Black,Gun,Correct,1,408,9.326086957,15.3649635,-0.292546439,1.88969849
1037,386,Black,Tool,Correct,1,374,9.326086957,15.3649635,-0.292546439,8.039023101
1037,387,Black,Tool,Correct,1,453,9.326086957,15.3649635,-0.292546439,4.141644459
1037,388,Black,Tool,Incorrect,2,432,9.326086957,15.3649635,-0.292546439,-6.042661199
1037,391,White,Tool,Correct,1,436,9.326086957,15.3649635,-0.292546439,-9.240278596
1037,393,Black,Gun,Correct,1,496,9.326086957,15.3649635,-0.292546439,-4.12652994
1037,394,Black,Gun,Correct,1,405,9.326086957,15.3649635,-0.292546439,9.390252804
1037,396,Black,Tool,Correct,1,584,9.326086957,15.3649635,-0.292546439,6.474948985
1037,397,Black,Tool,Correct,1,416,9.326086957,15.3649635,-0.292546439,5.88739552
1037,398,Black,Gun,Correct,1,361,9.326086957,15.3649635,-0.292546439,-3.069845782
1037,399,Black,Tool,Correct,1,431,9.326086957,15.3649635,-0.292546439,2.063218999
1037,400,White,Tool,Incorrect,2,492,9.326086957,15.3649635,-0.292546439,-9.592534608
1037,401,Black,Tool,Incorrect,2,427,9.326086957,15.3649635,-0.292546439,-5.457389912
1037,402,White,Tool,Correct,1,376,9.326086957,15.3649635,-0.292546439,0.979432719
1037,403,White,Gun,Correct,1,410,9.326086957,15.3649635,-0.292546439,-5.696375909
1037,404,Black,Tool,Correct,1,361,9.326086957,15.3649635,-0.292546439,10.10190613
1037,405,Black,Tool,Correct,1,401,9.326086957,15.3649635,-0.292546439,-0.211145782
1037,406,Black,Tool,Incorrect,2,353,9.326086957,15.3649635,-0.292546439,4.956350965
1037,407,Black,Tool,Correct,1,524,9.326086957,15.3649635,-0.292546439,-4.932128101
1037,408,White,Gun,Correct,1,398,9.326086957,15.3649635,-0.292546439,-8.004725555
1037,409,Black,Tool,Incorrect,2,399,9.326086957,15.3649635,-0.292546439,8.113787457
1037,410,Black,Tool,Correct,1,388,9.326086957,15.3649635,-0.292546439,14.8498637
1037,411,White,Gun,Correct,1,435,9.326087,15.36496,-0.2925464,1.155245
1037,412,White,Tool,Correct,1,375,9.326087,15.36496,-0.2925464,2.243689
1037,413,White,Tool,Incorrect,2,475,9.326087,15.36496,-0.2925464,-4.33446
1037,414,White,Tool,Correct,1,477,9.326087,15.36496,-0.2925464,5.370084
1037,415,White,Tool,Correct,1,373,9.326087,15.36496,-0.2925464,9.24587
1037,416,White,Tool,Correct,1,420,9.326087,15.36496,-0.2925464,3.104056
1037,417,White,Tool,Incorrect,2,434,9.326087,15.36496,-0.2925464,-11.35561
1037,418,Black,Gun,Correct,1,377,9.326087,15.36496,-0.2925464,4.138533
1037,419,Black,Tool,Correct,1,373,9.326087,15.36496,-0.2925464,10.0019
1037,420,White,Gun,Correct,1,443,9.326087,15.36496,-0.2925464,9.458918
1037,421,White,Gun,Correct,1,362,9.326087,15.36496,-0.2925464,-1.267081
1037,422,White,Gun,Correct,1,381,9.326087,15.36496,-0.2925464,1.667961
1037,423,White,Tool,Correct,1,442,9.326087,15.36496,-0.2925464,-6.925118
1037,424,Black,Tool,Incorrect,2,414,9.326087,15.36496,-0.2925464,0.5057892
1037,425,White,Gun,Incorrect,2,353,9.326087,15.36496,-0.2925464,8.271955
1037,426,White,Gun,Correct,1,631,9.326087,15.36496,-0.2925464,0.5901935
1037,427,Black,Gun,Correct,1,404,9.326087,15.36496,-0.2925464,12.61216
1037,428,White,Tool,Correct,1,480,9.326087,15.36496,-0.2925464,6.454041
1037,429,Black,Gun,Correct,1,363,9.326087,15.36496,-0.2925464,4.921964
1037,430,Black,Tool,Correct,1,437,9.326087,15.36496,-0.2925464,8.768059
1037,431,Black,Gun,Correct,1,403,9.326087,15.36496,-0.2925464,-4.220183
1037,432,White,Tool,Correct,1,376,9.326087,15.36496,-0.2925464,7.460958
1037,433,Black,Gun,Correct,1,346,9.326087,15.36496,-0.2925464,7.709039
1037,434,Black,Gun,Incorrect,2,411,9.326087,15.36496,-0.2925464,10.2016
1037,435,Black,Gun,Correct,1,448,9.326087,15.36496,-0.2925464,7.840113
1037,436,Black,Gun,Correct,1,349,9.326087,15.36496,-0.2925464,5.044506
1037,437,Black,Gun,Correct,1,393,9.326087,15.36496,-0.2925464,-2.727438
1037,438,White,Gun,Correct,1,341,9.326087,15.36496,-0.2925464,4.736337
1037,439,Black,Gun,Correct,1,369,9.326087,15.36496,-0.2925464,3.744519
1037,440,White,Gun,Correct,1,329,9.326087,15.36496,-0.2925464,6.759748
1037,441,White,Gun,Correct,1,383,9.326087,15.36496,-0.2925464,-6.332742
1037,442,White,Gun,Correct,1,434,9.326087,15.36496,-0.2925464,-13.63764
1037,443,White,Gun,Correct,1,373,9.326087,15.36496,-0.2925464,-11.07907
1037,444,White,Gun,Correct,1,395,9.326087,15.36496,-0.2925464,-8.743228
1037,445,White,Gun,Correct,1,430,9.326087,15.36496,-0.2925464,13.3703
1037,446,White,Gun,Correct,1,367,9.326087,15.36496,-0.2925464,0.5482662
1037,447,White,Gun,Correct,1,380,9.326087,15.36496,-0.2925464,NA
1043,32,White,Tool,Correct,1,450,2.326087,-0.6350365,0.7975935,3.038882
1043,33,White,Tool,Correct,1,443,2.326087,-0.6350365,0.7975935,1.171375
1043,34,White,Tool,Correct,1,413,2.326087,-0.6350365,0.7975935,-12.71571
1043,35,Black,Gun,Correct,1,371,2.326087,-0.6350365,0.7975935,-2.997108
1043,36,White,Tool,Correct,1,447,2.326087,-0.6350365,0.7975935,-6.459342
1043,37,Black,Gun,Incorrect,2,368,2.326087,-0.6350365,0.7975935,-1.199456
1043,38,Black,Gun,Correct,1,392,2.326087,-0.6350365,0.7975935,1.594375
1043,39,White,Tool,Correct,1,493,2.326087,-0.6350365,0.7975935,5.068674
1043,42,White,Tool,Correct,1,433,2.326087,-0.6350365,0.7975935,-9.316999
1043,45,White,Tool,Correct,1,420,2.326087,-0.6350365,0.7975935,9.301481
1043,46,Black,Tool,Correct,1,550,2.326087,-0.6350365,0.7975935,1.454268
1043,47,White,Tool,Correct,1,381,2.326087,-0.6350365,0.7975935,0.5364466
1043,48,White,Tool,Correct,1,415,2.326087,-0.6350365,0.7975935,-7.921799
1043,50,White,Gun,Incorrect,2,402,2.326087,-0.6350365,0.7975935,-1.69258
1043,51,White,Gun,Correct,1,457,2.326087,-0.6350365,0.7975935,-7.994605
1043,52,White,Tool,Correct,1,543,2.326087,-0.6350365,0.7975935,-0.2305177
1043,53,White,Gun,Correct,1,359,2.326087,-0.6350365,0.7975935,4.566741
1043,54,White,Gun,Incorrect,2,434,2.326087,-0.6350365,0.7975935,3.063332
1043,55,White,Tool,Correct,1,611,2.326087,-0.6350365,0.7975935,-1.559851
1043,56,White,Tool,Incorrect,2,399,2.326087,-0.6350365,0.7975935,-2.286616
1043,57,White,Gun,Correct,1,488,2.326087,-0.6350365,0.7975935,-7.278803
1043,58,Black,Tool,Incorrect,2,337,2.326087,-0.6350365,0.7975935,5.302493
1043,59,White,Gun,Incorrect,2,356,2.326087,-0.6350365,0.7975935,-2.126421
1043,60,Black,Tool,Correct,1,687,2.326087,-0.6350365,0.7975935,9.513185
1043,61,White,Gun,Correct,1,495,2.326087,-0.6350365,0.7975935,-2.477011
1043,62,Black,Gun,Correct,1,344,2.326087,-0.6350365,0.7975935,-12.46874
1043,63,White,Tool,Correct,1,429,2.326087,-0.6350365,0.7975935,-7.040743
1043,64,White,Tool,Correct,1,541,2.326087,-0.6350365,0.7975935,-9.782473
1043,65,Black,Gun,Correct,1,435,2.326087,-0.6350365,0.7975935,-4.154676
1043,66,White,Tool,Correct,1,434,2.326087,-0.6350365,0.7975935,-2.886539
1043,67,White,Tool,Correct,1,486,2.326087,-0.6350365,0.7975935,-5.730689
1043,68,Black,Gun,Correct,1,366,2.326087,-0.6350365,0.7975935,-0.7712046
1043,69,Black,Gun,Correct,1,356,2.326087,-0.6350365,0.7975935,8.052115
1043,70,White,Tool,Correct,1,433,2.326087,-0.6350365,0.7975935,-3.433134
1043,71,Black,Gun,Correct,1,435,2.326087,-0.6350365,0.7975935,11.69431
1043,72,Black,Gun,Correct,1,437,2.326087,-0.6350365,0.7975935,7.888912
1043,73,White,Tool,Correct,1,333,2.326087,-0.6350365,0.7975935,-6.840737
1043,74,Black,Tool,Incorrect,2,431,2.326087,-0.6350365,0.7975935,-2.601409
1043,75,Black,Gun,Incorrect,2,466,2.326087,-0.6350365,0.7975935,9.526165
1043,76,White,Gun,Correct,1,460,2.326087,-0.6350365,0.7975935,-8.120647
1043,77,Black,Gun,Correct,1,395,2.326087,-0.6350365,0.7975935,-3.560106
1043,78,White,Gun,Correct,1,399,2.326087,-0.6350365,0.7975935,-10.51121
1043,79,White,Gun,Correct,1,516,2.326087,-0.6350365,0.7975935,-8.907997
1043,80,Black,Tool,Incorrect,2,351,2.326087,-0.6350365,0.7975935,6.574148
1043,81,Black,Tool,Correct,1,394,2.326087,-0.6350365,0.7975935,-13.18607
1043,82,Black,Tool,Correct,1,441,2.326087,-0.6350365,0.7975935,10.35169
1043,83,Black,Gun,Correct,1,522,2.326087,-0.6350365,0.7975935,-1.31669
1043,84,Black,Tool,Incorrect,2,524,2.326087,-0.6350365,0.7975935,-4.728076
1043,85,White,Tool,Correct,1,351,2.326087,-0.6350365,0.7975935,-2.384904
1043,86,Black,Gun,Correct,1,390,2.326087,-0.6350365,0.7975935,3.589434
1043,87,White,Gun,Correct,1,456,2.326087,-0.6350365,0.7975935,-9.344962
1043,88,White,Gun,Correct,1,415,2.326087,-0.6350365,0.7975935,-0.575845
1043,89,White,Gun,Correct,1,408,2.326087,-0.6350365,0.7975935,-3.337203
1043,90,Black,Gun,Incorrect,2,375,2.326087,-0.6350365,0.7975935,-2.971462
1043,91,Black,Gun,Correct,1,402,2.326087,-0.6350365,0.7975935,-18.91332
1043,92,Black,Gun,Correct,1,349,2.326087,-0.6350365,0.7975935,-13.11733
1043,93,White,Gun,Incorrect,2,489,2.326087,-0.6350365,0.7975935,1.765261
1043,94,Black,Tool,Incorrect,2,410,2.326087,-0.6350365,0.7975935,3.763944
1043,95,Black,Tool,Correct,1,480,2.326087,-0.6350365,0.7975935,1.171336
1043,96,White,Gun,Correct,1,462,2.326087,-0.6350365,0.7975935,-7.903733
1043,97,White,Gun,Correct,1,408,2.326087,-0.6350365,0.7975935,1.162492
1043,98,Black,Gun,Correct,1,374,2.326087,-0.6350365,0.7975935,-1.305136
1043,99,Black,Gun,Correct,1,437,2.326087,-0.6350365,0.7975935,4.259713
1043,100,Black,Gun,Correct,1,366,2.326087,-0.6350365,0.7975935,-4.720422
1043,101,Black,Gun,Correct,1,459,2.326087,-0.6350365,0.7975935,9.987053
1043,102,Black,Tool,Incorrect,2,348,2.326087,-0.6350365,0.7975935,-12.70952
1043,103,Black,Tool,Correct,1,378,2.326087,-0.6350365,0.7975935,6.041107
1043,104,Black,Tool,Correct,1,575,2.326087,-0.6350365,0.7975935,-3.886793
1043,105,Black,Tool,Correct,1,497,2.326087,-0.6350365,0.7975935,-2.79111
1043,106,White,Gun,Correct,1,519,2.326087,-0.6350365,0.7975935,-6.626547
1043,107,Black,Tool,Correct,1,465,2.326087,-0.6350365,0.7975935,-8.896816
1043,108,Black,Tool,Correct,1,492,2.326087,-0.6350365,0.7975935,-11.75474
1043,109,Black,Gun,Correct,1,419,2.326087,-0.6350365,0.7975935,3.492893
1043,110,Black,Tool,Correct,1,554,2.326087,-0.6350365,0.7975935,8.210966
1043,111,Black,Gun,Incorrect,2,353,2.326087,-0.6350365,0.7975935,11.80705
1043,112,Black,Tool,Correct,1,495,2.326087,-0.6350365,0.7975935,-6.156202
1043,113,White,Tool,Incorrect,2,388,2.326087,-0.6350365,0.7975935,5.303486
1043,114,Black,Gun,Incorrect,2,457,2.326087,-0.6350365,0.7975935,2.238033
1043,116,Black,Tool,Incorrect,2,509,2.326087,-0.6350365,0.7975935,3.056294
1043,117,White,Tool,Correct,1,439,2.326087,-0.6350365,0.7975935,4.90543
1043,118,White,Tool,Correct,1,544,2.326087,-0.6350365,0.7975935,5.997352
1043,119,White,Tool,Correct,1,487,2.326087,-0.6350365,0.7975935,2.859567
1043,120,Black,Tool,Incorrect,2,407,2.326087,-0.6350365,0.7975935,3.145977
1043,121,Black,Gun,Incorrect,2,380,2.326087,-0.6350365,0.7975935,-6.409771
1043,122,Black,Tool,Correct,1,579,2.326087,-0.6350365,0.7975935,-2.608115
1043,123,White,Gun,Incorrect,2,456,2.326087,-0.6350365,0.7975935,-10.08708
1043,124,White,Tool,Correct,1,515,2.326087,-0.6350365,0.7975935,8.654391
1043,125,White,Tool,Correct,1,472,2.326087,-0.6350365,0.7975935,-5.831444
1043,127,Black,Tool,Correct,1,468,2.326087,-0.6350365,0.7975935,3.606177
1043,128,Black,Gun,Incorrect,2,405,2.326087,-0.6350365,0.7975935,-10.80759
1043,129,Black,Gun,Correct,1,480,2.326087,-0.6350365,0.7975935,-0.04023138
1043,130,Black,Tool,Correct,1,535,2.326087,-0.6350365,0.7975935,9.155939
1043,131,Black,Gun,Correct,1,435,2.326087,-0.6350365,0.7975935,2.241972
1043,132,White,Gun,Incorrect,2,326,2.326087,-0.6350365,0.7975935,16.09409
1043,133,Black,Tool,Correct,1,374,2.326087,-0.6350365,0.7975935,0.697943
1043,134,White,Tool,Correct,1,447,2.326087,-0.6350365,0.7975935,-1.143257
1043,137,Black,Tool,Correct,1,565,2.326087,-0.6350365,0.7975935,-3.109082
1043,138,Black,Tool,Incorrect,2,374,2.326087,-0.6350365,0.7975935,-2.137519
1043,140,Black,Gun,Incorrect,2,403,2.326087,-0.6350365,0.7975935,8.303613
1043,141,White,Gun,Incorrect,2,408,2.326087,-0.6350365,0.7975935,-10.14176
1043,142,Black,Tool,Incorrect,2,394,2.326087,-0.6350365,0.7975935,-1.674896
1043,143,Black,Tool,Correct,1,567,2.326087,-0.6350365,0.7975935,9.631183
1043,144,White,Gun,Correct,1,423,2.326087,-0.6350365,0.7975935,-11.75964
1043,145,White,Gun,Correct,1,433,2.326087,-0.6350365,0.7975935,4.307423
1043,146,Black,Tool,Correct,1,533,2.326087,-0.6350365,0.7975935,6.849408
1043,147,Black,Tool,Correct,1,616,2.326087,-0.6350365,0.7975935,-6.396883
1043,148,Black,Tool,Correct,1,389,2.326087,-0.6350365,0.7975935,3.509069
1043,149,White,Gun,Incorrect,2,371,2.326087,-0.6350365,0.7975935,5.486383
1043,150,Black,Gun,Correct,1,431,2.326087,-0.6350365,0.7975935,-0.2365516
1043,151,White,Gun,Correct,1,414,2.326087,-0.6350365,0.7975935,-2.723198
1043,152,Black,Tool,Incorrect,2,337,2.326087,-0.6350365,0.7975935,-12.42294
1043,153,White,Gun,Incorrect,2,380,2.326087,-0.6350365,0.7975935,2.547674
1043,154,Black,Tool,Incorrect,2,465,2.326087,-0.6350365,0.7975935,8.461516
1043,155,White,Tool,Correct,1,542,2.326087,-0.6350365,0.7975935,-0.7501281
1043,158,Black,Gun,Correct,1,384,2.326087,-0.6350365,0.7975935,6.460169
1043,159,White,Tool,Correct,1,484,2.326087,-0.6350365,0.7975935,-2.240671
1043,160,White,Gun,Incorrect,2,381,2.326087,-0.6350365,0.7975935,9.085175
1043,161,Black,Gun,Correct,1,383,2.326087,-0.6350365,0.7975935,4.615279
1043,162,Black,Gun,Correct,1,377,2.326087,-0.6350365,0.7975935,-0.7200302
1043,163,White,Tool,Correct,1,405,2.326087,-0.6350365,0.7975935,-1.192324
1043,164,White,Gun,Correct,1,463,2.326087,-0.6350365,0.7975935,-10.57349
1043,165,Black,Gun,Correct,1,399,2.326087,-0.6350365,0.7975935,9.253544
1043,166,White,Tool,Correct,1,474,2.326087,-0.6350365,0.7975935,-5.323111
1043,167,White,Tool,Correct,1,552,2.326087,-0.6350365,0.7975935,4.265406
1043,168,White,Gun,Incorrect,2,416,2.326087,-0.6350365,0.7975935,-8.216103
1043,169,White,Gun,Correct,1,445,2.326087,-0.6350365,0.7975935,-0.3949488
1043,170,White,Tool,Correct,1,430,2.326087,-0.6350365,0.7975935,7.573769
1043,171,Black,Tool,Correct,1,496,2.326087,-0.6350365,0.7975935,16.98839
1043,172,White,Tool,Incorrect,2,324,2.326087,-0.6350365,0.7975935,5.136809
1043,174,White,Tool,Correct,1,535,2.326087,-0.6350365,0.7975935,4.149823
1043,175,Black,Gun,Correct,1,403,2.326087,-0.6350365,0.7975935,-2.977243
1043,176,Black,Tool,Correct,1,353,2.326087,-0.6350365,0.7975935,-2.554572
1043,177,Black,Tool,Incorrect,2,343,2.326087,-0.6350365,0.7975935,4.451459
1043,178,White,Gun,Correct,1,368,2.326087,-0.6350365,0.7975935,15.58637
1043,179,White,Tool,Correct,1,487,2.326087,-0.6350365,0.7975935,5.491649
1043,180,White,Gun,Incorrect,2,372,2.326087,-0.6350365,0.7975935,-1.478653
1043,181,Black,Gun,Correct,1,425,2.326087,-0.6350365,0.7975935,-5.950633
1043,182,Black,Gun,Correct,1,416,2.326087,-0.6350365,0.7975935,-2.449233
1043,183,Black,Tool,Correct,1,520,2.326087,-0.6350365,0.7975935,12.01054
1043,186,Black,Gun,Correct,1,495,2.326087,-0.6350365,0.7975935,2.201614
1043,188,Black,Gun,Correct,1,393,2.326087,-0.6350365,0.7975935,5.970134
1043,190,White,Tool,Incorrect,2,400,2.326087,-0.6350365,0.7975935,12.96963
1043,192,Black,Gun,Correct,1,438,2.326087,-0.6350365,0.7975935,-2.219791
1043,193,White,Tool,Correct,1,482,2.326087,-0.6350365,0.7975935,10.88996
1043,195,Black,Gun,Correct,1,481,2.326087,-0.6350365,0.7975935,4.492786
1043,196,White,Tool,Correct,1,473,2.326087,-0.6350365,0.7975935,5.635563
1043,197,Black,Gun,Correct,1,386,2.326087,-0.6350365,0.7975935,1.065084
1043,198,White,Gun,Correct,1,381,2.326087,-0.6350365,0.7975935,4.568432
1043,199,Black,Gun,Correct,1,332,2.326087,-0.6350365,0.7975935,-3.828535
1043,200,Black,Tool,Correct,1,485,2.326087,-0.6350365,0.7975935,4.720043
1043,201,Black,Gun,Incorrect,2,384,2.326087,-0.6350365,0.7975935,1.036044
1043,202,Black,Gun,Correct,1,394,2.326087,-0.6350365,0.7975935,2.908723
1043,203,White,Gun,Correct,1,431,2.326087,-0.6350365,0.7975935,-2.993338
1043,204,White,Gun,Correct,1,385,2.326087,-0.6350365,0.7975935,5.235403
1043,205,Black,Tool,Correct,1,446,2.326087,-0.6350365,0.7975935,20.97038
1043,206,White,Gun,Correct,1,328,2.326087,-0.6350365,0.7975935,-12.01534
1043,207,Black,Gun,Correct,1,454,2.326087,-0.6350365,0.7975935,1.999867
1043,208,Black,Tool,Incorrect,2,379,2.326087,-0.6350365,0.7975935,1.399388
1043,209,White,Gun,Correct,1,552,2.326087,-0.6350365,0.7975935,-5.129805
1043,210,Black,Gun,Correct,1,411,2.326087,-0.6350365,0.7975935,2.519644
1043,211,White,Tool,Correct,1,380,2.326087,-0.6350365,0.7975935,3.676586
1043,212,White,Gun,Correct,1,433,2.326087,-0.6350365,0.7975935,-6.351154
1043,213,White,Tool,Incorrect,2,386,2.326087,-0.6350365,0.7975935,1.301315
1043,216,Black,Tool,Incorrect,2,431,2.326087,-0.6350365,0.7975935,-1.678073
1043,217,White,Gun,Correct,1,465,2.326087,-0.6350365,0.7975935,-8.135542
1043,218,White,Tool,Incorrect,2,418,2.326087,-0.6350365,0.7975935,-6.041104
1043,219,White,Gun,Incorrect,2,470,2.326087,-0.6350365,0.7975935,-13.67949
1043,221,White,Tool,Correct,1,460,2.326087,-0.6350365,0.7975935,-0.4726721
1043,222,White,Gun,Correct,1,444,2.326087,-0.6350365,0.7975935,17.21176
1043,223,White,Gun,Incorrect,2,304,2.326087,-0.6350365,0.7975935,3.525095
1043,224,White,Tool,Correct,1,492,2.326087,-0.6350365,0.7975935,0.1197497
1043,225,Black,Tool,Correct,1,536,2.326087,-0.6350365,0.7975935,5.794476
1043,226,White,Tool,Incorrect,2,306,2.326087,-0.6350365,0.7975935,1.721664
1043,227,Black,Gun,Correct,1,418,2.326087,-0.6350365,0.7975935,6.84971
1043,228,Black,Tool,Incorrect,2,408,2.326087,-0.6350365,0.7975935,3.231156
1043,229,White,Tool,Correct,1,427,2.326087,-0.6350365,0.7975935,-9.107476
1043,231,White,Tool,Incorrect,2,480,2.326087,-0.6350365,0.7975935,-4.215945
1043,233,White,Tool,Correct,1,522,2.326087,-0.6350365,0.7975935,-10.17353
1043,234,White,Gun,Incorrect,2,428,2.326087,-0.6350365,0.7975935,12.98861
1043,235,White,Gun,Correct,1,450,2.326087,-0.6350365,0.7975935,12.71849
1043,236,Black,Gun,Correct,1,517,2.326087,-0.6350365,0.7975935,-7.355963
1043,238,White,Tool,Correct,1,448,2.326087,-0.6350365,0.7975935,2.622971
1043,239,White,Gun,Incorrect,2,404,2.326087,-0.6350365,0.7975935,-2.599665
1043,241,Black,Gun,Correct,1,464,2.326087,-0.6350365,0.7975935,-13.56114
1043,242,White,Gun,Correct,1,386,2.326087,-0.6350365,0.7975935,14.20875
